timestamp,Roll,Pitch,Yaw,Acc X,Acc Y,Acc Z,Gyro X,Gyro Y,Gyro Z,Acc Magnitude,Gyro Magnitude
0.0,-36.15985928460217,-43.980513996267675,-69.73384234378905,-0.6814836859703064,0.20131899416446686,-3.548736333847046,,,,,
0.009302999999988515,-38.665586165392945,-45.44399314878958,-66.90353294496136,-0.6796269416809082,-0.08991473913192749,-4.272475242614746,,,,,
0.018684000000007472,-40.14446487526356,-46.46505303073993,-64.87011341599059,-0.5331723690032959,-0.3452608287334442,-4.628656387329102,,,,,
0.028080999999986034,-40.371881287982575,-47.055677120210355,-63.96008479741172,-0.6649181246757507,-0.38488277792930603,-4.595792293548584,,,,,
0.037451000000032764,-39.11322344363193,-46.963056466928876,-64.37304552146469,-0.5242477655410767,-0.21410858631134033,-4.135601997375488,,,,,
0.046846000000016375,-36.627947834588,-46.13060392129312,-65.80063831531176,-0.4793633818626404,-0.032810717821121216,-3.367041826248169,,,,,
0.05621999999999616,-33.40465175813406,-44.722371233240914,-67.85830363865476,-0.5377541780471802,0.06299862265586853,-2.3697099685668945,,,,,
0.0656060000000025,-29.872606961318102,-42.85053394907681,-70.4154455914454,-0.5327141880989075,0.12164096534252167,-1.2642645835876465,,,,,
0.0751690000000167,-26.4853288688234,-40.571890599624886,-73.37610065708472,-0.343207448720932,0.2301739752292633,-0.17210453748703003,,,,,
0.08455400000002555,-23.66924617100246,-37.969727907994645,-76.52903733260533,0.031109154224395752,0.4101788401603699,0.8220139145851135,,,,,
0.09393199999999524,-21.821549262223865,-35.36476540453977,-79.3400229520789,0.6314584612846375,0.5861697793006897,1.756150245666504,,,,,
0.10331100000001925,-20.934951813559803,-33.24313936313306,-81.55283032064892,0.6525292992591858,0.6811836957931519,2.5514118671417236,,,,,
0.11269600000002811,-20.77803423260822,-31.713937382343072,-82.9550388317376,0.6887078285217285,0.6594833135604858,2.893192768096924,,,,,
0.12208600000002434,-21.06903492114612,-30.68009138951274,-83.34165058234207,0.6807182431221008,0.563910961151123,2.6522622108459473,,,,,
0.13146799999998393,-21.47167093910375,-30.114530441373507,-82.904040448687,0.6572681665420532,0.38080719113349915,2.1513147354125977,,,,,
0.14085599999998522,-21.84883541174737,-29.917741356416045,-82.00676511314575,0.5577622652053833,0.16909080743789673,1.6220978498458862,,,,,
0.15023899999999912,-22.20463475766646,-29.887769800923703,-80.9410741556787,0.45597967505455017,0.039734870195388794,1.0455949306488037,,,,,
0.1596270000000004,-22.658916879784904,-29.876462654338656,-79.88273645115387,0.3902708888053894,0,0.34662723541259766,,,,,
0.1690290000000232,-23.323431255975155,-29.779837648660486,-78.94144881649945,0.44760987162590027,0,-0.4976269006729126,,,,,
0.1782079999999837,-24.378895318822526,-29.499695490547044,-78.25604791164578,0.597283661365509,-0.0750623345375061,-1.488152265548706,,,,,
0.18760100000002922,-25.784419059042794,-28.92147071212523,-78.00740152090884,0.6739242076873779,-0.1277589201927185,-2.411712169647217,,,,,
0.19697700000000395,-27.330777838724078,-27.90016431183938,-78.43245981460598,0.8213622570037842,-0.0324631929397583,-3.0789530277252197,,,,,
0.2063620000000128,-28.73400187241496,-26.209700180503155,-79.49491532625461,0.8969248533248901,0.22977258265018463,-3.455575942993164,,,,,
0.22519600000003948,-29.70624782987083,-20.820659874880636,-82.43123175755875,1.046090841293335,0.593001663684845,-3.409968137741089,,,,,
0.23458800000003066,-29.080231542249475,-17.444719817500424,-83.85106672240792,0.9209455251693726,0.6644927263259888,-3.075127601623535,,,,,
0.24397700000002942,-27.93810375630194,-13.633706741263467,-85.22352795050779,0.6692813634872437,0.7100529670715332,-2.6068198680877686,,,,,
0.25335400000000163,-26.705400038160363,-9.24107670156455,-86.71851279096335,0.3684026598930359,0.7798037528991699,-1.9904701709747314,,,,,
0.26275000000003956,-25.913105567913103,-4.1402493606924855,-88.46626030460737,0.04126165062189102,0.8106523752212524,-1.3236219882965088,,,,,
0.27205400000002555,-26.022607805668972,1.7073821028632867,-90.43598778398571,-0.25226885080337524,0.8233202695846558,-0.6007854342460632,,,,,
0.28161099999999806,-27.420801402340167,8.221124187637155,-92.78438322186811,-0.5680217146873474,0.7917788028717041,0.152374267578125,,,,,
0.290992000000017,-30.26170731883996,15.132474480943065,-95.50912620017576,-0.7710675001144409,0.572853147983551,0.8227344155311584,,,,,
0.30037400000003345,-34.556402357574584,22.08882390486203,-98.65146960598146,-0.96302729845047,0.23034578561782837,1.3033174276351929,,,,,
0.30977400000000443,-40.513703305485514,28.435663534918675,-102.37948472258464,-0.8953508138656616,-0.055093348026275635,1.4620815515518188,,,,,
0.31915600000002087,-47.81761604782397,33.61761151989867,-106.49832223449161,-0.9147427678108215,-0.1956855058670044,1.2137199640274048,,,,,
0.32853000000000065,-55.14933703349803,37.629429496006125,-110.31076662193159,-1.191141963005066,-0.38950908184051514,0.6847202777862549,,,,,
0.33791300000001456,-61.20079652952958,40.8846441620854,-113.44592654412817,-1.484851598739624,-0.7548779249191284,0.21700060367584229,,,,,
0.347282000000007,-65.41690680007098,43.66882298986047,-115.95291213908993,-1.6189688444137573,-1.1236662864685059,-0.04666832089424133,,,,,
0.35668500000002723,-68.0409620766403,45.99848420477293,-117.92896476972494,-1.6716322898864746,-1.4019055366516113,-0.10336260497570038,,,,,
0.366059000000007,-69.75661810305,47.72459059566756,-119.49407273140271,-1.5661218166351318,-1.5482659339904785,0,,,,,
0.3754640000000222,-71.27050813225783,48.84586670179194,-120.86215585249586,-1.3608274459838867,-1.561539649963379,0.08588364720344543,,,,,
0.38485100000002603,-73.14005098014697,49.45062912375244,-122.32035085002276,-1.1638474464416504,-1.466970443725586,0,,,,,
0.39422000000001844,-75.67351740532361,49.57374416108205,-124.12962778535359,-0.9243084788322449,-1.290271520614624,-0.1546020805835724,,,,,
0.4036140000000046,-78.93089988478717,49.26385639702997,-126.52501658657911,-0.6704068183898926,-1.0495097637176514,-0.28266656398773193,,,,,
0.41298799999998437,-82.71142497370006,48.602557890038405,-129.41321636955806,-0.446677029132843,-0.8163632154464722,-0.35082679986953735,,,,,
0.4223739999999907,-86.55889141464738,47.67264616829775,-132.56125982243103,-0.23229587078094482,-0.5627349019050598,-0.274653822183609,,,,,
0.43176600000003873,-89.97828693518736,46.63590046789508,-135.70209693251502,0,-0.3535423278808594,-0.12494104355573654,,,,,
0.44115099999999074,-92.49483634180216,45.61083830867085,-138.60046505465033,0,-0.18563717603683472,0.1407410204410553,,,,,
0.45053899999999203,-93.89185836224925,44.550789753606146,-141.09602685989984,0.18499541282653809,-0.1108088493347168,0.5488155484199524,,,,,
0.45990900000003876,-94.25501204189116,43.424753820150094,-143.05213319220834,0.4265674948692322,0,0.9747455716133118,,,,,
0.46911599999998543,-93.7881196658075,42.18268517202419,-144.37889035390268,0.800818681716919,0.22698664665222168,1.351675033569336,,,,,
0.47849400000001197,-92.70263803184885,40.858440407939895,-145.05350292675496,1.3100664615631104,0.6198210716247559,1.6455776691436768,,,,,
0.48786899999998923,-91.2184313688778,39.54502587034013,-145.10723996196873,1.92500638961792,1.073264479637146,1.8395682573318481,,,,,
0.4973410000000058,-89.6095259039855,38.433999652635,-144.7731077334728,2.4591786861419678,1.599241018295288,1.9769207239151,,,,,
0.5067280000000096,-88.17896995201741,37.73278608501182,-144.37950693799849,2.9656057357788086,2.0302367210388184,1.9939711093902588,,,,,
0.516097000000002,-87.10731784926669,37.67304819673054,-144.14401478358528,3.306868553161621,2.3528330326080322,1.9569553136825562,,,,,
0.5254810000000134,-86.47756299992652,38.41549460400816,-144.094415537067,3.4420015811920166,2.5146877765655518,1.7740558385849,,,,,
0.5348789999999894,-86.2533637377749,40.00953226246124,-144.1742947347667,3.2822651863098145,2.4847428798675537,1.426641583442688,,,,,
0.5442590000000109,-86.31494331290138,42.358891356842435,-144.32480347757397,2.747774362564087,2.3212132453918457,1.1271262168884277,,,,,
0.5536470000000122,-86.74409557762172,45.34910249307744,-144.71474111592175,1.9894763231277466,1.9028607606887817,0.9131520390510559,,,,,
0.5630449999999882,-87.76929220685071,48.91683339094747,-145.60486959772794,1.1304948329925537,1.4081730842590332,0.7383886575698853,,,,,
0.5723350000000096,-89.69829117464974,52.83254484471134,-147.21975768437443,0.1815076470375061,0.8974229693412781,0.4997057616710663,,,,,
0.5818899999999871,-92.68677746182513,56.78644557994798,-149.68898590148078,-0.7347226142883301,0.31559884548187256,0.3201877474784851,,,,,
0.5912710000000061,-96.76165349348565,60.56663003222396,-153.15466131848606,-1.591029405593872,-0.27573201060295105,0.10519694536924362,,,,,
0.6006629999999973,-101.75702860797315,63.989715382066095,-157.69444386142067,-2.238389492034912,-0.8075100183486938,-0.1187739148736,,,,,
0.6100470000000087,-107.04765720893943,66.87840656868,-162.86289082784026,-2.699331283569336,-1.2476656436920166,-0.23818911612033844,,,,,
0.6194270000000301,-111.4810901203182,69.19536184109091,-167.51460145016924,-2.909907817840576,-1.6273534297943115,-0.288882315158844,,,,,
0.6381910000000062,-112.28354606069288,72.80505800647286,-169.4765975525803,-2.9818763732910156,-1.7970480918884277,0.09843268990516663,,,,,
0.6475790000000075,-107.53675056693493,73.80055607128354,-165.52208589617587,-3.0803403854370117,-1.5437431335449219,0.3239138126373291,,,,,
0.6569509999999923,-100.81990368720405,73.7165207755461,-159.5937837061586,-2.3311827182769775,-1.2986494302749634,0.39667659997940063,,,,,
0.6663460000000327,-93.42732059243242,72.80641671985042,-152.86688643209578,-1.8728892803192139,-0.9891096949577332,0.46590232849121094,,,,,
0.6756510000000162,-86.3557025514177,71.1588976600246,-146.22587389804383,-1.4142789840698242,-0.6854370832443237,0.35377272963523865,,,,,
0.6851139999999987,-80.27499476882919,68.9109723019017,-140.33275498980504,-1.0297105312347412,-0.3683314919471741,0.28619202971458435,,,,,
0.694500000000005,-75.62763736189662,66.27723550933663,-135.74178433789194,-0.6765941977500916,-0.15928521752357483,0.2300298511981964,,,,,
0.7038900000000012,-72.23931947582008,63.42207444536476,-132.4078207151052,-0.38496243953704834,-0.08411827683448792,0.1831645965576172,,,,,
0.7226390000000151,-68.97152059786234,57.06275287658373,-129.00744313790412,0.24390947818756104,0.21202266216278076,0.18700431287288666,,,,,
0.7318650000000275,-68.87832668107353,53.563668535368166,-128.53163664552446,0.8003721833229065,0.6099010705947876,0.10611017048358917,,,,,
0.741343000000029,-69.16665791933558,50.01537611748117,-128.3541738567372,1.5884995460510254,1.1481034755706787,-0.07529875636100769,,,,,
0.7506979999999999,-69.42409626459816,46.632065535692895,-128.11318048829403,2.6069817543029785,1.7140343189239502,-0.26768064498901367,,,,,
0.7600850000000037,-69.58600669003795,43.80439700073606,-127.74699989106558,3.7058448791503906,2.1630725860595703,-0.5801522731781006,,,,,
0.7694630000000302,-69.61150445481967,42.1264577168489,-127.40182096186804,4.751671314239502,2.490797519683838,-1.0125846862792969,,,,,
0.7788590000000113,-69.24406187079248,41.94794685005893,-127.09023928429517,5.388637542724609,2.637964963912964,-1.4784491062164307,,,,,
0.7882359999999835,-68.2970343841242,43.17876522499455,-126.71528670506854,5.347363471984863,2.488009452819824,-2.002790927886963,,,,,
0.7975279999999998,-66.73436005705179,45.52769488649932,-126.22350838658,4.506815433502197,2.05977201461792,-2.046203374862671,,,,,
0.8070000000000164,-65.1877370669486,48.81473515797012,-126.15305978100116,3.276766777038574,1.653983235359192,-1.717151403427124,,,,,
0.8163870000000202,-64.43949848628333,52.870778976374616,-127.05322206079373,2.044118881225586,1.4885731935501099,-1.1271218061447144,,,,,
0.8257899999999836,-65.09278125009357,57.470407351352485,-129.29358613960133,0.9736567139625549,1.3253700733184814,-0.4265425205230713,,,,,
0.8350720000000251,-67.50005335591754,62.317314361794516,-132.90852513149727,0.033977210521698,1.1465667486190796,0.18065668642520905,,,,,
0.8446319999999901,-71.75117729419355,67.0092872813964,-137.83259061404516,-1.0707125663757324,1.0304635763168335,0.7187650203704834,,,,,
0.8540250000000356,-77.5097975897569,71.04863577790175,-143.86743873412303,-2.2137579917907715,0.7638348340988159,1.3447233438491821,,,,,
0.8634059999999977,-84.19764705161468,74.2173730761521,-150.71101823362437,-3.103224039077759,0.054887786507606506,2.027475118637085,,,,,
0.8727890000000116,-91.10786200924517,77.12894816248658,-158.0439432728483,-3.525702953338623,-0.715965747833252,2.6124258041381836,,,,,
0.8821649999999863,-97.79901802697978,80.30053029119551,-165.70747259553542,-3.5658679008483887,-0.9764812588691711,2.725162982940674,,,,,
0.8915489999999977,-101.01671020971202,83.46774744899447,-170.20069681478483,-4.191488742828369,-1.0717629194259644,3.184709072113037,,,,,
0.9009399999999914,-86.81594769504571,85.68908617144629,-157.25183007915774,-3.665665626525879,-0.880007266998291,2.988978624343872,,,,,
0.9103269999999952,-46.07413110082243,85.42026397353614,-117.15390388191184,-3.2073090076446533,-0.9187646508216858,2.825547933578491,,,,,
0.919713999999999,-25.075798160065464,82.06450108136556,-95.98866921008056,-2.702512502670288,-0.6805731654167175,2.3000917434692383,,,,,
0.9291059999999902,-19.942206429491637,77.49551958808162,-89.9868535697412,-2.2728219032287598,-0.43270015716552734,1.565480351448059,,,,,
0.9384850000000142,-18.971615112822096,72.52750431022513,-87.72290537165391,-1.7689316272735596,-0.18787160515785217,1.026594877243042,,,,,
0.9478730000000155,-19.261069454732304,67.44661752506104,-86.55762474652477,-1.2988264560699463,0,0.6029516458511353,,,,,
0.9572390000000155,-20.017992298849215,62.33300886619885,-85.84746009501566,-0.903587818145752,0.1852990835905075,0.19788196682929993,,,,,
0.9666349999999966,-20.98112975490449,57.18165053704155,-85.305814184436,-0.45866018533706665,0.31020426750183105,-0.1502872109413147,,,,,
0.9760210000000029,-22.115205374881448,52.026338335369424,-84.81623116791906,-0.028859734535217285,0.4673456847667694,-0.4028875231742859,,,,,
0.9852300000000014,-23.49442978673593,47.01373069810973,-84.2185982602394,0.34380340576171875,0.7054036855697632,-0.8224483728408813,,,,,
0.9946980000000281,-24.980786708912447,42.34944844334176,-83.45146289320707,0.6729206442832947,0.921379804611206,-1.3743371963500977,,,,,
1.004066000000023,-26.33883910537198,38.16683168043189,-82.49732772200552,0.9746832847595215,1.0212913751602173,-1.8326046466827393,,,,,
1.013446999999985,-27.33890123829112,34.48189615276325,-81.31576821192937,1.2544716596603394,0.9334211945533752,-2.2877330780029297,,,,,
1.0228240000000142,-27.84298476204617,31.231191385148225,-79.87008236482808,1.436178207397461,0.7041230201721191,-2.7198004722595215,,,,,
1.0322209999999927,-27.862054952706476,28.311376300052064,-78.23082478132928,1.5161446332931519,0.4187632203102112,-3.0836355686187744,,,,,
1.0509870000000205,-26.310495928631124,23.286346369292765,-74.73150605565499,1.2939798831939697,0,-3.153339385986328,,,,,
1.060371000000032,-24.684871817989478,21.295823488318444,-73.06879974445305,1.0124685764312744,-0.10694023966789246,-2.8915388584136963,,,,,
1.0697460000000092,-22.46837262471529,19.768433038548544,-71.61735616145607,0.6559087038040161,-0.21570006012916565,-2.4436745643615723,,,,,
1.0791540000000168,-19.83487610452709,18.73538307602225,-70.53489795774675,0.2853310704231262,-0.2757357358932495,-1.6860253810882568,,,,,
1.0886140000000069,-17.150251217768496,18.19359638123737,-70.0460953259784,-0.06401816010475159,-0.33401045203208923,-0.6737680435180664,,,,,
1.098009999999988,-14.906418226312468,18.203172600503837,-70.34120974549676,-0.25588738918304443,-0.3480638265609741,0.5225903391838074,,,,,
1.1073820000000296,-13.592507172215997,18.67441188417552,-71.35263852871512,-0.24466896057128906,-0.2929290533065796,1.5135688781738281,,,,,
1.1167690000000334,-13.312487529756972,19.105337911274454,-72.77880129662054,-0.13800090551376343,-0.240164652466774,2.2798011302948,,,,,
1.1261560000000372,-13.911127711522893,18.84459396739509,-74.2180814547302,-0.09570056200027466,-0.14530153572559357,2.5903241634368896,,,,,
1.1355369999999994,-14.943540103962075,17.458355457294,-75.44037429658844,-0.24361839890480042,-0.06999070942401886,2.6680548191070557,,,,,
1.1449330000000373,-16.00468159764558,15.039051747955847,-76.35654950050555,-0.248285710811615,-0.0931386947631836,2.507204532623291,,,,,
1.154213000000027,-16.767147148749224,11.913623425900592,-76.896487322691,-0.2635064125061035,-0.06225815415382385,2.18048357963562,,,,,
1.1636960000000158,-17.169994136683272,8.262233857363167,-77.11473241120328,-0.23327556252479553,-0.028715312480926514,1.747267723083496,,,,,
1.1730770000000348,-17.332694590129112,4.128637588159276,-77.04002807929044,-0.19005975127220154,0,1.2865865230560303,,,,,
1.1824589999999944,-17.421099794939323,-0.4178002486690735,-76.68831552539027,-0.1732119470834732,0.08783721923828125,0.8022075295448303,,,,,
1.1918450000000007,-17.617093958320652,-5.281687541724164,-76.07625640550697,-0.18696866929531097,0.14813823997974396,0.28534257411956787,,,,,
1.201231000000007,-18.116476753621534,-10.394724071481173,-75.22946911960197,-0.18335722386837006,0.21166352927684784,-0.2728556990623474,,,,,
1.2104449999999929,-19.097902990261105,-15.702928056343062,-74.18469336294605,-0.04909856617450714,0.29301315546035767,-0.9824044704437256,,,,,
1.2199100000000271,-20.743308319941136,-21.081601643687236,-72.88005803079099,0.18588557839393616,0.4363730251789093,-1.8617595434188843,,,,,
1.2292889999999943,-22.95820159317398,-26.24071856100095,-71.34822080610518,0.3962392210960388,0.5575065016746521,-2.7656960487365723,,,,,
1.2386620000000335,-25.478514692130315,-30.679048390053865,-69.45511191393344,0.5406779050827026,0.5888339877128601,-3.5982556343078613,,,,,
1.2480410000000006,-27.917542723407912,-33.94826535406344,-67.52250979386885,0.6847341060638428,0.43280068039894104,-4.422280311584473,,,,,
1.2573560000000157,-29.727785759779653,-35.961028307506545,-65.88700924208787,0.8045392632484436,0.19348610937595367,-4.973132610321045,,,,,
1.2667390000000296,-30.58791380243916,-36.974131967269095,-64.78682070870202,0.8801116943359375,0,-5.181728363037109,,,,,
1.2761179999999968,-30.443934220155818,-37.343911145985146,-64.28006648160556,0.8749681115150452,0,-5.015419006347656,,,,,
1.2855030000000056,-29.36222904187504,-37.27201860426591,-64.31317688002622,0.7988622188568115,0.15131370723247528,-4.538248538970947,,,,,
1.2948810000000321,-27.528127293145694,-36.82021629417034,-64.78848550300854,0.7722159624099731,0.3221642076969147,-3.887986183166504,,,,,
1.3042599999999993,-25.23514801047072,-36.030272200249286,-65.53349381170452,0.697909414768219,0.5131399631500244,-3.2564380168914795,,,,,
1.3136539999999854,-22.687349361818036,-34.97674784041849,-66.41605495622431,0.5708701014518738,0.6334832906723022,-2.572317600250244,,,,,
1.3230210000000397,-20.02488477677696,-33.724381628889844,-67.4269942216415,0.49424368143081665,0.666908323764801,-1.8630859851837158,,,,,
1.3324200000000133,-17.342793966129364,-32.32333605272268,-68.46770794945981,0.4576495289802551,0.6762140989303589,-1.1704297065734863,,,,,
1.3419850000000224,-14.718430719648993,-30.824523708063367,-69.4834934779802,0.48335176706314087,0.7144759893417358,-0.3818448781967163,,,,,
1.351364999999987,-12.341105385971904,-29.266623158725288,-70.46302009088404,0.5908240079879761,0.7810778617858887,0.495660662651062,,,,,
1.3607380000000262,-10.448934177464595,-27.746259278185303,-71.28765822952818,0.6331736445426941,0.8419985175132751,1.3598191738128662,,,,,
1.3701340000000073,-9.206511011659842,-26.38280622829808,-71.90863902252413,0.5304121375083923,0.8245776891708374,2.348207712173462,,,,,
1.3795029999999997,-8.701846408868205,-25.256839331094234,-72.30088935640187,0.4075578451156616,0.6106780767440796,3.2274107933044434,,,,,
1.388892999999996,-8.8356058213955,-24.445069058295463,-72.38409429243278,0.28572604060173035,0.4111593961715698,3.673737049102783,,,,,
1.3982780000000048,-9.511279402746382,-24.184124787416195,-72.134037941917,0.2076483964920044,0.24492354691028595,3.7511909008026123,,,,,
1.407671999999991,-10.473779696007343,-24.71810703941504,-71.54943998373594,0.032268524169921875,0.07851008325815201,3.542435884475708,,,,,
1.4169669999999996,-11.50474757786648,-26.087400075493626,-70.58854373539154,-0.15353113412857056,-0.03876136243343353,3.0109894275665283,,,,,
1.426432000000034,-12.542646093932367,-28.14511490537001,-69.251267536909,-0.37093591690063477,-0.13595987856388092,2.3488645553588867,,,,,
1.4358310000000074,-13.63348089670943,-30.66749836841438,-67.67885564180523,-0.5774007439613342,-0.2430434226989746,1.6389870643615723,,,,,
1.4451999999999998,-14.971859633509132,-33.4710801669567,-65.97898340371636,-0.7689218521118164,-0.35448157787323,0.878974437713623,,,,,
1.4545949999999834,-16.842407194802497,-36.4247989266007,-64.26827439897656,-0.948789119720459,-0.5086238384246826,0.15488338470458984,,,,,
1.4638140000000135,-19.321209872349847,-39.414278003129986,-62.77123378234639,-1.1548891067504883,-0.5417743921279907,-0.40795689821243286,,,,,
1.4731909999999857,-22.218465756295103,-42.280322019684206,-61.74413571266885,-1.278612732887268,-0.4478367269039154,-0.954544186592102,,,,,
1.482637000000011,-25.2334044873301,-44.880010047678866,-61.19712732055274,-1.3434429168701172,-0.3028006851673126,-1.4830130338668823,,,,,
1.492016000000035,-28.06178139559831,-47.2128401311632,-60.91281761612191,-1.4239165782928467,-0.1948041021823883,-2.0087623596191406,,,,,
1.5014090000000238,-30.466358610780244,-49.43195466672391,-60.790270764044486,-1.6436487436294556,-0.17337918281555176,-2.711655378341675,,,,,
1.5107899999999859,-32.07849597954665,-51.70154293752965,-60.83334190862926,-1.7449357509613037,-0.24572283029556274,-3.475090265274048,,,,,
1.5201789999999846,-32.516711598123365,-54.2132443981167,-61.43720527206078,-1.6693497896194458,-0.1402318775653839,-4.034266471862793,,,,,
1.5295690000000377,-31.238847102385584,-56.955444992280206,-63.19419390488163,-2.034581422805786,0.08222296833992004,-4.234562397003174,,,,,
1.538944000000015,-27.600662989361155,-59.20001348237779,-66.8005694325162,-1.7361427545547485,0.451219767332077,-4.004942417144775,,,,,
1.5483350000000087,-21.843643044638572,-60.49455776246866,-72.24953024109368,-1.3758797645568848,0.8908485174179077,-3.68086838722229,,,,,
1.557705999999996,-15.089047312486702,-60.71713286593317,-78.6693821238096,-0.9476144909858704,1.3492796421051025,-3.467352867126465,,,,,
1.5670100000000389,-8.611522653202412,-59.96871971727161,-84.89902286692278,-0.5844231843948364,1.6855816841125488,-3.1963934898376465,,,,,
1.576391000000001,-3.2175673405725673,-58.32897213877467,-90.18696947415619,-0.3333114981651306,1.872401237487793,-2.8949131965637207,,,,,
1.585787000000039,0.8337827999306082,-55.90420056942566,-94.16013804047806,-0.25812017917633057,1.9038265943527222,-2.6084070205688477,,,,,
1.595171999999991,3.6534149694448876,-52.82679235767466,-96.87464499367888,-0.244887113571167,1.8451781272888184,-2.2697594165802,,,,,
1.6045540000000074,5.525433991096368,-49.14344515818226,-98.71114754615546,-0.1148761510848999,1.6835637092590332,-1.7449769973754883,,,,,
1.6139180000000124,6.586532158497928,-44.81271708762508,-100.00506256547435,0,1.4929155111312866,-0.9880138635635376,,,,,
1.6234969999999862,6.7181674056387894,-39.76987299367732,-101.03279353336214,0.13621217012405396,1.268674373626709,-0.06818467378616333,,,,,
1.632865000000038,5.658685860444247,-33.9300702937567,-102.00327516112017,0.36072152853012085,1.0657196044921875,0.9457648992538452,,,,,
1.6422590000000241,3.0425145041563666,-27.314638816285736,-102.817403147277,0.665229856967926,0.7812209725379944,1.873857021331787,,,,,
1.6516540000000077,-1.1864622472906148,-20.105371470131058,-103.31450401956204,0.8840591311454773,0.49475646018981934,2.7555434703826904,,,,,
1.6610360000000242,-6.894845635392749,-12.855272458016916,-103.61171829682682,1.0382581949234009,0.14314693212509155,3.474867343902588,,,,,
1.6704050000000166,-13.710164875270282,-6.488306031918331,-103.95723947343423,0.9147271513938904,-0.22444678843021393,3.9708356857299805,,,,,
1.6797980000000052,-21.2450249876168,-1.6342654107337924,-104.41389928053005,0.6637083888053894,-0.5064291954040527,3.840980052947998,,,,,
1.6891620000000103,-29.02731357052031,1.637774022012151,-104.96243113775377,0.6378487944602966,-0.6417623162269592,3.1878371238708496,,,,,
1.6985609999999838,-36.6117809978019,3.854439493589642,-105.47887887393851,0.7738460898399353,-0.5354095697402954,2.019761800765991,,,,,
1.7079540000000293,-43.722315202321454,5.6228958412168195,-105.89073526383103,0.5052168965339661,-0.4340721368789673,1.6634407043457031,,,,,
1.726711000000023,-58.20565319779591,8.129245306233939,-107.33509955976662,0.6577110290527344,-0.21755450963974,0.7972445487976074,,,,,
1.7360950000000344,-65.95274394518479,8.945012692301603,-108.22146859863598,0.7118070125579834,0.1422884464263916,0.432680606842041,,,,,
1.7453240000000392,-73.80527958502354,9.296640946686876,-109.2074417892364,0.8091224431991577,0.4867905378341675,0.17543160915374756,,,,,
1.7546889999999848,-81.46100681818578,9.316128929495203,-110.20814315044213,0.9463421106338501,0.776767909526825,0.05136305093765259,,,,,
1.7640969999999925,-88.74757665485839,9.206271850458004,-111.20159219474583,1.0798697471618652,1.024703025817871,0.12409544736146927,,,,,
1.7734530000000177,-95.78734597222528,9.071455229534225,-112.36792670995371,1.2642065286636353,1.2440268993377686,0.3455304205417633,,,,,
1.7829209999999875,-102.84884096542935,8.974789488626733,-113.42875546610519,1.3652642965316772,1.4366271495819092,0.5222200155258179,,,,,
1.7923059999999964,-110.07671956803412,9.01539884880337,-114.21119042719123,1.3698683977127075,1.550805687904358,0.4727519452571869,,,,,
1.8016120000000342,-117.30225772164381,9.39506949604195,-114.70399994612119,1.2573375701904297,1.5391383171081543,0.20902235805988312,,,,,
1.810999000000038,-124.17138817450953,10.26421438218731,-115.13061217222082,1.149308204650879,1.3897149562835693,-0.1517443060874939,,,,,
1.8203710000000228,-130.40712105609543,11.724243735002542,-115.74566862822957,1.0635461807250977,1.1891616582870483,-0.5577353835105896,,,,,
1.8297620000000165,-135.6579392064382,13.520414047132302,-116.68970553787678,0.7134965062141418,1.0982729196548462,-0.8142667412757874,,,,,
1.8393240000000333,-139.69635360592252,15.30420124168103,-117.89218792680592,0.6697166562080383,0.7293065190315247,-1.0812397003173828,,,,,
1.8487160000000245,-142.4679280845321,16.98395136216101,-119.29231615853512,0.5844167470932007,0.35669034719467163,-1.2936124801635742,,,,,
1.8581050000000232,-144.13116807977963,18.50094342924896,-120.83005055002559,0.45396125316619873,0,-1.4138551950454712,,,,,
1.8674720000000207,-144.9991902660627,19.722623745163904,-122.41453510808961,0.294280081987381,-0.3926299214363098,-1.4617522954940796,,,,,
1.8768590000000245,-145.5775530766722,20.52625615045673,-124.03321952654788,0.15275374054908752,-0.8718929290771484,-1.3922462463378906,,,,,
1.8862310000000093,-146.2072807456523,20.854747396949445,-125.6010785071748,0,-1.0535619258880615,-1.3522900342941284,,,,,
1.8956320000000346,-146.65928118268616,20.726947892538305,-126.99868217537194,-0.10529199242591858,-0.9021334648132324,-1.4066004753112793,,,,,
1.905020000000036,-146.32803045470325,20.250841098096423,-128.1019827014161,-0.05353996157646179,-0.6617722511291504,-1.4176568984985352,,,,,
1.9143149999999878,-144.70350682585513,19.592756479999288,-128.74619227524934,0.03984957933425903,-0.44653332233428955,-1.2335907220840454,,,,,
1.9237790000000246,-141.67867170674776,18.891153500537158,-128.87463521672217,0.14906837046146393,-0.2104785442352295,-1.039644718170166,,,,,
1.9331589999999892,-137.3723381265003,18.204958770500955,-128.5950833614193,0.20164215564727783,0.07212662696838379,-0.8812013864517212,,,,,
1.9425390000000107,-132.0440803260664,17.477751599047952,-128.11052958459396,0.2164003849029541,0.3972434401512146,-0.774217963218689,,,,,
1.951925000000017,-125.92171243997133,16.620164506575332,-127.62920385639305,0.12718257308006287,0.767689049243927,-0.6990650296211243,,,,,
1.9611360000000104,-119.13800873737749,15.567268351878848,-127.22759578630281,-0.06615358591079712,1.2322942018508911,-0.62650465965271,,,,,
1.9705240000000117,-111.66138219086501,14.30282790085128,-126.80917714848866,-0.17482833564281464,1.8694968223571777,-0.6019703149795532,,,,,
1.979974000000027,-103.29047405897926,12.861109301304424,-126.15949496747884,-0.2475988268852234,2.501128673553467,-0.6308524012565613,,,,,
1.9893650000000207,-93.91515671441867,11.21041583388967,-125.17734346827496,-0.5666227340698242,2.982114315032959,-0.8045884966850281,,,,,
1.9987470000000371,-84.32243873518789,9.136951773206397,-124.29162726004694,-0.5109846591949463,3.405876636505127,-0.24821960926055908,,,,,
2.008115000000032,-76.80649680971534,6.697178164673105,-124.56919099511795,0.14517022669315338,3.4506378173828125,0.8183718323707581,,,,,
2.0175050000000283,-72.82023023634254,4.717837760985453,-126.52389307012189,1.00798499584198,3.489746570587158,0.6647968292236328,,,,,
2.0269010000000094,-71.50740053713231,4.071421892428291,-129.0265754141345,1.4198322296142578,3.7214722633361816,-0.04675891995429993,,,,,
2.0362709999999993,-71.20600670536581,4.790570749345651,-131.05344257242822,1.3720780611038208,3.5302646160125732,-0.7229061722755432,,,,,
2.045658000000003,-69.89264187240869,6.680571060636309,-132.2630774495855,0.9537423253059387,3.19235897064209,-1.1598193645477295,,,,,
2.0550479999999993,-66.33768043230054,9.295097517830408,-132.97849546401318,0.28107988834381104,2.779285192489624,-1.2752050161361694,,,,,
2.064438999999993,-60.682194527946734,11.856804668449536,-133.31256019951323,-0.270332932472229,2.2621712684631348,-0.6700119972229004,,,,,
2.0737379999999916,-54.03577897301689,13.968525849696086,-133.50365135557902,-0.6355464458465576,1.8634424209594727,0.656920850276947,,,,,
2.083106999999984,-47.88312194318542,15.876339016593292,-134.1076599948972,-0.6558331847190857,1.6279958486557007,2.504978656768799,,,,,
2.0926709999999957,-43.69389318737548,17.830295556237747,-135.39135157952944,-0.39456841349601746,1.3876736164093018,3.9459822177886963,,,,,
2.1020639999999844,-41.95620313250053,19.439869301342366,-136.96876352509037,-0.07978564500808716,1.2833936214447021,4.750676155090332,,,,,
2.1114620000000173,-42.306540999074606,20.236312040501456,-138.2211997317845,0.07798188924789429,1.340370535850525,5.1059770584106445,,,,,
2.1208420000000388,-43.975057291948076,20.169593255678727,-138.86639797969852,0.21572506427764893,1.4037742614746094,5.006030559539795,,,,,
2.1302269999999908,-46.02895074406017,19.458337159755313,-138.92416057717585,0.5866382122039795,1.3320178985595703,4.419830322265625,,,,,
2.139602000000025,-47.48319716478948,18.512536938823402,-138.09005151403852,0.3968130350112915,1.1976755857467651,3.8370535373687744,,,,,
2.148988000000031,-48.06109925379675,17.327033982342233,-136.54400348753103,0.34052610397338867,0.980211079120636,3.362616539001465,,,,,
2.1583610000000135,-48.047207061762215,15.863591094918101,-134.56866194128065,0.2535848021507263,0.8368856310844421,2.959603786468506,,,,,
2.167762000000039,-48.079042448356475,14.148822776548009,-132.40427274358441,0.15489402413368225,0.8393484950065613,2.498300552368164,,,,,
2.177137000000016,-48.8572813125309,12.275932933565013,-130.29820190382716,0.12795250117778778,0.9430112242698669,1.9359444379806519,,,,,
2.18633600000004,-50.783641803213406,10.377300399187604,-128.30717904849703,0.07594193518161774,1.133216381072998,1.2510368824005127,,,,,
2.195713000000012,-53.814754025970906,8.577696368798629,-126.39081404100591,-0.026529178023338318,1.3868576288223267,0.5617876052856445,,,,,
2.205122000000017,-57.563467172614125,6.971576235872107,-124.46588764071467,-0.1314067542552948,1.6173272132873535,-0.13687363266944885,,,,,
2.2145889999999895,-61.56288825329245,5.567259914848192,-122.62163360036702,-0.11843759566545486,1.8699814081192017,-0.8126177787780762,,,,,
2.2239620000000286,-65.50817113497543,4.308185809367062,-120.94847683962413,0.0665813758969307,2.0796260833740234,-1.3732861280441284,,,,,
2.2333439999999882,-69.24494256311847,3.186845242885993,-119.41650993548362,0.36425238847732544,2.1236467361450195,-1.8422234058380127,,,,,
2.2427240000000097,-72.7266680747595,2.3730670867823145,-117.9637595745292,0.6235901117324829,2.08746075630188,-2.2511136531829834,,,,,
2.2521150000000034,-75.92884897562713,2.032983193557451,-116.71516730439164,0.8323788642883301,2.03810453414917,-2.6395394802093506,,,,,
2.2614960000000224,-78.75541702176595,2.2584783580599344,-115.90239253385413,1.015163779258728,2.020214319229126,-2.900315761566162,,,,,
2.270799000000011,-81.08658624091184,3.070981170140062,-115.73233632041878,1.060561180114746,2.0166733264923096,-3.030256748199463,,,,,
2.2801919999999996,-82.90278551630864,4.3711056276353055,-116.2697791686872,1.1188284158706665,2.013763904571533,-2.902839183807373,,,,,
2.289562999999987,-84.34444570629964,6.13506404903895,-117.38596811479316,1.1021487712860107,1.9800732135772705,-2.6404612064361572,,,,,
2.2989540000000375,-85.53438390140339,8.381594287309413,-118.95223774879531,0.9560895562171936,1.9298639297485352,-2.3330507278442383,,,,,
2.3083409999999844,-86.57371651867827,11.074426855123562,-120.92268485114847,0.7725603580474854,1.7960484027862549,-2.057253122329712,,,,,
2.317711000000031,-87.41472552097413,14.132086514099049,-123.16819443714877,0.5437906384468079,1.6072964668273926,-1.8137149810791016,,,,,
2.3270970000000375,-87.9026018644687,17.429387418173135,-125.50496104186463,0.2914789319038391,1.3450675010681152,-1.5765076875686646,,,,,
2.3364860000000363,-87.87437644950921,20.840407367455263,-127.763527829968,0,1.0249435901641846,-1.2039096355438232,,,,,
2.3460699999999974,-87.3602241756394,24.271369634486238,-129.9222527889247,-0.2950761318206787,0.6449252367019653,-0.5948871970176697,,,,,
2.3554320000000075,-86.4951765328048,27.61279387138431,-132.02383230311904,-0.6977010369300842,0.15634644031524658,0.18836869299411774,,,,,
2.3648130000000265,-85.38915832372838,30.704581096885505,-134.02025396756954,-0.965343177318573,-0.45032352209091187,1.082564115524292,,,,,
2.3741939999999886,-84.24695344907171,33.50343835950785,-135.7342781698841,-1.163819670677185,-1.0557358264923096,2.0338478088378906,,,,,
2.383579999999995,-83.30771530254246,36.017338421982785,-137.24564359412597,-1.388124704360962,-1.5827486515045166,3.0340664386749268,,,,,
2.3929729999999836,-82.77507933757201,38.124525090985024,-138.5768140227067,-1.523970127105713,-2.0202078819274902,3.8692386150360107,,,,,
2.40235100000001,-82.58363347857608,39.77371316015342,-139.52196418192526,-1.5608773231506348,-2.3700814247131348,4.243995189666748,,,,,
2.4117290000000366,-82.27681133823609,40.96737559626655,-139.6420847847313,-1.6384572982788086,-2.5128273963928223,4.093864917755127,,,,,
2.4211109999999962,-81.54269196424089,41.44651589318645,-138.69816681840288,-1.4701497554779053,-2.4744980335235596,3.5324366092681885,,,,,
2.430505000000039,-80.48931029429902,41.15388607976316,-136.98346295686756,-1.1872868537902832,-2.367673397064209,2.7657721042633057,,,,,
2.4398879999999963,-79.4423418920012,40.320711967944504,-135.0895254592465,-0.9643089771270752,-2.165785789489746,2.1326775550842285,,,,,
2.4492759999999976,-78.90875685811083,39.027368220446064,-133.33310227145117,-0.6681429147720337,-1.8967773914337158,1.5780792236328125,,,,,
2.4586610000000064,-79.24593227956484,37.413959132320294,-131.82695414462177,-0.4860372543334961,-1.5923395156860352,1.0947333574295044,,,,,
2.468039000000033,-80.52655595035138,35.58677957265981,-130.74489470950056,-0.37917912006378174,-1.2474563121795654,0.6959959268569946,,,,,
2.4774250000000393,-82.64683812729852,33.58519646364786,-130.1263173261163,-0.26105016469955444,-0.8969153761863708,0.3708910644054413,,,,,
2.486797000000024,-85.35844098570944,31.415748425282676,-129.95233270486807,-0.08485031127929688,-0.5375078916549683,0.18226343393325806,,,,,
2.496203000000037,-88.3997140684334,29.08514705981594,-130.0835711963628,0.11205825209617615,-0.1597832441329956,0.14151783287525177,,,,,
2.5055680000000393,-91.619262471366,26.633130006492657,-130.36834540777218,0.31944531202316284,0.24596160650253296,0.18386223912239075,,,,,
2.5147680000000037,-95.02104479367942,24.112810740785253,-130.7218170351511,0.6198397278785706,0.6740235090255737,0.30095162987709045,,,,,
2.5242299999999886,-98.62826496766155,21.61942101932726,-131.1010325643916,0.9955207705497742,1.1228694915771484,0.4212920665740967,,,,,
2.5336060000000202,-102.38525736973385,19.268220874333664,-131.4889748441946,1.3418598175048828,1.5766663551330566,0.5504161715507507,,,,,
2.543007999999986,-106.24447416289087,17.138833088744164,-131.85523190838057,1.7469768524169922,2.015198230743408,0.8795129060745239,,,,,
2.5523880000000077,-110.1863814653304,15.348888247129908,-132.15710395300556,2.206936836242676,2.489144802093506,1.3424413204193115,,,,,
2.5617750000000115,-114.21764288154847,14.078715144379217,-132.4150997615275,2.715707302093506,2.8824706077575684,1.8430967330932617,,,,,
2.571153000000038,-118.38955598067105,13.62373809715017,-132.83808362122468,2.6221094131469727,3.002425193786621,2.0483322143554688,,,,,
2.5805290000000127,-122.54171822966146,14.136709946938264,-133.64165555791536,2.351177215576172,2.721644878387451,2.3650450706481934,,,,,
2.599309000000005,-131.4197003011503,17.487248718781828,-136.54542689458364,0.94245845079422,1.5323810577392578,2.451968193054199,,,,,
2.608678999999995,-136.11304230366454,19.821837125896582,-138.29182208652807,0.26931363344192505,1.000106692314148,1.9707214832305908,,,,,
2.6180120000000215,-140.71942628951604,22.376253549440488,-139.97586124751112,-0.21662357449531555,0.4495372176170349,1.372376561164856,,,,,
2.627568999999994,-145.03920439159756,24.96768577750111,-141.3955772202454,-0.5892715454101562,-0.05442458391189575,0.7205072045326233,,,,,
2.636955999999998,-148.88785652563234,27.478523270605862,-142.40485973618044,-0.7693184614181519,-0.44706469774246216,0.131025493144989,,,,,
2.6463300000000345,-152.23892655975962,29.94126540108385,-143.1288315613778,-0.8763143420219421,-0.7417172193527222,-0.429779052734375,,,,,
2.6557060000000092,-155.17075269831363,32.28237906991585,-143.6460453490447,-0.9528418183326721,-1.0533621311187744,-0.9712226986885071,,,,,
2.665095000000008,-157.82751757232222,34.27458187746433,-143.95989596693155,-0.9852625727653503,-1.3270889520645142,-1.5117673873901367,,,,,
2.674474000000032,-160.25124270039004,35.759467372020886,-144.07851496298224,-0.923046350479126,-1.4284381866455078,-2.0356638431549072,,,,,
2.683861000000036,-162.24230097811736,36.7519729200982,-143.88757367934997,-0.7726818919181824,-1.3501713275909424,-2.4365146160125732,,,,,
2.693243999999993,-163.60603672126967,37.3424165945028,-143.36657354296807,-0.6200089454650879,-1.1464052200317383,-2.6032791137695312,,,,,
2.7026420000000257,-164.34110392012016,37.573183627732334,-142.55881358876175,-0.43942368030548096,-0.8928614854812622,-2.6445460319519043,,,,,
2.7120100000000207,-164.60373597507953,37.46077219606076,-141.55022810762006,-0.16477197408676147,-0.5817725658416748,-2.638273239135742,,,,,
2.721400000000017,-164.68322691697455,36.97382253175855,-140.53493822749158,0.13126400113105774,-0.26866865158081055,-2.519075870513916,,,,,
2.7307820000000333,-164.86249796584949,36.006588313971456,-139.82915773606294,0.34827226400375366,-0.08789904415607452,-2.220564365386963,,,,,
2.740173000000027,-165.34574624205865,34.502077323938245,-139.6240510040037,0.4097899794578552,-0.027706190943717957,-1.713463544845581,,,,,
2.7495529999999917,-166.22600415239808,32.528583278364195,-139.90485746483014,0.38839393854141235,-0.029595449566841125,-1.2292596101760864,,,,,
2.7589290000000233,-167.32170349608458,30.269747225191228,-140.52505205644906,0.2415291965007782,-0.05957123637199402,-0.8097648620605469,,,,,
2.7683230000000094,-168.37878688072806,27.88820172746491,-141.23069125706576,0.10662931203842163,-0.14745108783245087,-0.37402117252349854,,,,,
2.777719999999988,-169.23783067353924,25.49803740640775,-141.8385153418721,0.034957557916641235,-0.2411317229270935,0.04565554857254028,,,,,
2.7870960000000196,-169.77962298370477,23.177568049744377,-142.26377500837458,0.11591127514839172,-0.29048269987106323,0.39303433895111084,,,,,
2.7962970000000382,-169.97926156418683,20.955667530753576,-142.57853505158087,0.23613455891609192,-0.3918730914592743,0.8325029611587524,,,,,
2.8056819999999902,-169.88567450626738,18.816266848440424,-142.89078462057182,0.3161914050579071,-0.5372247695922852,1.5154954195022583,,,,,
2.815133000000003,-169.640859337827,16.760802122962037,-143.22298225259905,0.4245295822620392,-0.7559980154037476,2.409813404083252,,,,,
2.8245110000000295,-169.4474469566429,14.865930420399915,-143.59598169434082,0.4932388663291931,-1.0161529779434204,3.4389822483062744,,,,,
2.8338919999999916,-169.5011160266964,13.240704687519921,-143.966263522119,0.4554751515388489,-1.3737361431121826,4.353843688964844,,,,,
2.843281999999988,-169.8860057837781,12.047424399887932,-144.41397584074574,0.31486189365386963,-1.6328850984573364,4.886785507202148,,,,,
2.852661000000012,-170.54795888450224,11.499515943751769,-144.81519917503653,0.16886025667190552,-1.837191104888916,4.920886039733887,,,,,
2.862044000000026,-171.30724497266863,11.732041071578678,-144.96721930348346,0.06889152526855469,-1.8821017742156982,4.502690315246582,,,,,
2.8714390000000094,-172.0187824376899,12.648713351027292,-144.719009379079,0.07037758827209473,-1.7040376663208008,3.8179073333740234,,,,,
2.880828000000008,-172.62099714302983,14.039331030837348,-144.04162646374866,0.23795266449451447,-1.3625845909118652,2.9799749851226807,,,,,
2.890201999999988,-173.10296873552096,15.742829094059015,-143.05934938423036,0.4221128225326538,-1.0363434553146362,2.1579558849334717,,,,,
2.899504000000036,-173.5617182304843,17.612024329697057,-142.0440921333101,0.4958189129829407,-0.8410634994506836,1.5715117454528809,,,,,
2.9088970000000245,-174.14236183344903,19.488546424372657,-141.15828884575814,0.44341951608657837,-0.7143582701683044,1.172269582748413,,,,,
2.9182779999999866,-174.8869839769222,21.284696195590673,-140.44476047831327,0.29053550958633423,-0.5999147891998291,0.8448760509490967,,,,,
2.9278510000000324,-175.77347452701196,23.019411279002423,-139.82555790670207,0.04749220609664917,-0.5673009157180786,0.49160099029541016,,,,,
2.9372079999999983,-176.69921423492232,24.746604092595252,-139.16410149877575,-0.20920473337173462,-0.5013459920883179,0,,,,,
2.9465999999999894,-177.4843787926735,26.47659712647505,-138.31816868853133,-0.377910315990448,-0.3872239291667938,-0.6385547518730164,,,,,
2.955982000000006,-177.9514096264918,28.164825238188357,-137.2004915177097,-0.36978879570961,-0.201749786734581,-1.3286346197128296,,,,,
2.9650060000000167,-177.92929946289334,29.73320343546097,-135.796579324412,-0.25116443634033203,0,-1.959207534790039,,,,,
2.9747750000000224,-177.31810071602766,31.08214560331262,-134.15201380140775,-0.081531822681427,0.20062480866909027,-2.472914934158325,,,,,
2.984136000000035,-176.09990777229248,32.11614016388835,-132.36785632761266,0.06413492560386658,0.3989641070365906,-2.847198009490967,,,,,
2.9935370000000034,-174.31094871588536,32.74263076044278,-130.55369122282096,0.2060999870300293,0.5852863788604736,-3.0519070625305176,,,,,
3.002904000000001,-172.0069857747867,32.90531801292281,-128.81952289485082,0.3016940951347351,0.7362595796585083,-3.082103729248047,,,,,
3.0122929999999997,-169.19711513290073,32.601260264481034,-127.23727380374139,0.29942700266838074,0.8659864664077759,-2.998410224914551,,,,,
3.021686999999986,-165.8239361973609,31.906068172235713,-125.80988508130173,0.26866981387138367,0.9889445304870605,-2.778132438659668,,,,,
3.0310680000000048,-161.8948657354583,30.913324528157673,-124.51439663139976,0.2658383846282959,1.1113433837890625,-2.4709696769714355,,,,,
3.0404460000000313,-157.51825767294596,29.663624528587047,-123.39429875406096,0.2604246139526367,1.172853946685791,-2.066045045852661,,,,,
3.0498230000000035,-152.89144980136803,28.156394146620567,-122.55075343255308,0.1993333399295807,1.1510765552520752,-1.6417722702026367,,,,,
3.0592080000000124,-148.2264242719954,26.381949734370313,-122.06200801848061,0.027358293533325195,1.1463813781738281,-1.2445721626281738,,,,,
3.068586000000039,-143.73579920919303,24.290569634774553,-121.8897119264714,-0.11811444163322449,1.1137621402740479,-0.7710500955581665,,,,,
3.0778040000000146,-139.49154818710838,21.843948998300444,-121.98363876658729,-0.19155895709991455,1.109708547592163,-0.2705225944519043,,,,,
3.087196000000006,-135.39741150666964,19.096538383089715,-122.30625852431496,-0.09691017866134644,1.211565375328064,0.12259352207183838,,,,,
3.096587999999997,-131.09499919119446,16.27766166100746,-122.79454660469726,0,1.369033932685852,0.43454253673553467,,,,,
3.106033000000025,-126.34505257090767,13.55998585156747,-123.43401127826728,0.06659197807312012,1.4818246364593506,1.1236646175384521,,,,,
3.1153940000000375,-121.29796980269955,11.022615300323478,-124.28023353785476,0.11092104017734528,1.4860442876815796,2.0734593868255615,,,,,
3.124798999999996,-116.24754659329328,8.735126380117135,-125.28710525973379,0,1.4633033275604248,2.8407669067382812,,,,,
3.13417800000002,-111.75229390156022,6.714591443425936,-126.44954484557199,0.22233200073242188,1.4633709192276,3.494183301925659,,,,,
3.143470000000036,-108.50530288006838,5.077006401409226,-127.76517991612296,0.5508748292922974,1.4581928253173828,3.636013984680176,,,,,
3.1528509999999983,-106.4252853268635,3.9434402319817554,-129.0844184770399,0.6582759022712708,1.468341588973999,3.1810619831085205,,,,,
3.1622470000000362,-105.04485037007073,3.406209232854975,-130.3222422969261,0.571326732635498,1.3209881782531738,2.574435234069824,,,,,
3.171633999999983,-103.86761462260802,3.338739349132769,-131.40625075407834,0.2834511697292328,1.092667579650879,2.0507311820983887,,,,,
3.190394000000026,-100.76083138586156,3.38321376641831,-132.60601751470583,-0.168149933218956,0.6769224405288696,1.3932111263275146,,,,,
3.199816999999996,-98.42711576385176,3.1323896963242635,-132.31123884579424,0,0.6156247854232788,0.9737390875816345,,,,,
3.209346000000039,-95.31900040687724,2.6914613385295016,-131.3510648997587,0.16456572711467743,0.6512874364852905,0.5230175256729126,,,,,
3.2187339999999836,-91.40730639741778,2.0801456312783912,-129.97240123210938,0.29078951478004456,0.6266955137252808,0.19339443743228912,,,,,
3.228110000000015,-86.95664708926951,1.269430516943243,-128.49561732113312,0.4103579521179199,0.4915568232536316,0.036472395062446594,,,,,
3.237507999999991,-82.4604298753244,0.22998810162781555,-127.2421512587719,0.4910380244255066,0.3305949568748474,0,,,,,
3.246902000000034,-78.27726917178198,-1.0269337480398157,-126.29223467411677,0.5562095046043396,0.19769775867462158,-0.08236023038625717,,,,,
3.256293000000028,-74.4245737034122,-2.4065009537896094,-125.67540410102268,0.6143708229064941,0.12355715036392212,-0.07355494797229767,,,,,
3.265646000000004,-70.78118222636775,-3.8556660936948672,-125.33804926865342,0.6628044843673706,0.05006808042526245,0.10223117470741272,,,,,
3.2750440000000367,-67.23190967522602,-5.340243836686103,-125.28628521418584,0.6845577359199524,-0.03230220079421997,0.42061248421669006,,,,,
3.284419000000014,-63.758349353607656,-6.867618490859672,-125.46806019594666,0.7195397615432739,-0.06890487670898438,0.9491331577301025,,,,,
3.293800000000033,-60.517973135687335,-8.474658302996648,-125.78014690593376,0.7507915496826172,-0.12255740165710449,1.6867777109146118,,,,,
3.30318299999999,-57.65507109011619,-10.287518067753835,-126.07329194148002,0.6737034916877747,-0.14790970087051392,2.364744186401367,,,,,
3.312564000000009,-55.22054635275759,-12.450648481789278,-126.24171961252317,0.7257527112960815,-0.05830526351928711,2.7494421005249023,,,,,
3.321954000000005,-53.112558019993436,-14.960572171173071,-126.16239061391964,0.8720529079437256,0.2168748378753662,2.8002352714538574,,,,,
3.3313400000000115,-51.086862021619524,-17.778581532363518,-125.80346570039595,1.0449557304382324,0.596737265586853,2.6914663314819336,,,,,
3.340709000000004,-49.12458305275762,-20.78539072348079,-125.16570755886569,1.3433701992034912,0.9482394456863403,2.518209457397461,,,,,
3.3501100000000292,-47.47781203868812,-23.78893455212609,-124.12334353730517,1.4871420860290527,1.2434061765670776,2.2319583892822266,,,,,
3.3594889999999964,-46.45894640077112,-26.67853135822824,-122.66861785078352,1.4224942922592163,1.4285109043121338,1.7903056144714355,,,,,
3.3688700000000154,-46.34678773017154,-29.3811563862872,-120.81407649123379,1.2483692169189453,1.5095999240875244,1.3163390159606934,,,,,
3.378079000000014,-47.169189137224876,-31.819569426137498,-118.65783108265958,0.9674963355064392,1.5974417924880981,0.8692572116851807,,,,,
3.3874640000000227,-48.712628356596035,-33.97479190855618,-116.27699228688311,0.6960622072219849,1.6706242561340332,0.4239312410354614,,,,,
3.3968419999999924,-50.732908822844436,-35.88237001238325,-113.63200518466377,0.45209503173828125,1.6862375736236572,0,,,,,
3.4062279999999987,-53.03161954952919,-37.58173173285352,-110.63244794913997,0.2067735195159912,1.6684614419937134,-0.4124046862125397,,,,,
3.4156110000000126,-55.46403717963054,-39.107572951722624,-107.28094914144465,-0.04884040355682373,1.6013076305389404,-0.7615004777908325,,,,,
3.425073999999995,-57.99856621104933,-40.475715532650895,-103.65144461468864,-0.29679185152053833,1.5498360395431519,-1.0550804138183594,,,,,
3.4344560000000115,-60.6951156256342,-41.66983576330836,-99.85301751980394,-0.47281140089035034,1.5385780334472656,-1.4248191118240356,,,,,
3.443840000000023,-63.465218777256226,-42.623021896422806,-96.02135254068696,-0.562250018119812,1.5584311485290527,-1.8568915128707886,,,,,
3.453236000000004,-66.11964066605584,-43.2420698935747,-92.29155556517186,-0.653608500957489,1.5376710891723633,-2.313023567199707,,,,,
3.4625310000000127,-68.3665171529703,-43.48873197284061,-88.88812416141545,-0.8060663342475891,1.4676487445831299,-2.6562280654907227,,,,,
3.471921000000009,-69.96542089514809,-43.42035218568382,-86.12209383472845,-0.9130479097366333,1.3365404605865479,-2.8142435550689697,,,,,
3.4812969999999837,-70.869643369848,-43.158082609174656,-84.16856758166101,-0.9560762643814087,1.2145154476165771,-2.9052443504333496,,,,,
3.4906730000000152,-71.05382402810166,-42.78100667605769,-83.00388837550052,-0.964680552482605,1.1319273710250854,-2.948892116546631,,,,,
3.4996960000000286,-70.48303245825521,-42.34543787582634,-82.54430527677934,-0.9551774263381958,1.0687296390533447,-2.866257905960083,,,,,
3.5094480000000203,-69.1294706278757,-41.90291167693554,-82.64556578401044,-0.9806809425354004,1.0550991296768188,-2.629998207092285,,,,,
3.5189210000000344,-67.02945210005628,-41.49967906083508,-83.19627221847655,-1.0139784812927246,1.0416624546051025,-2.2647790908813477,,,,,
3.528297000000009,-64.25486630375272,-41.17696734243457,-84.10785002095595,-0.9968175888061523,1.0285924673080444,-1.822656273841858,,,,,
3.5376919999999927,-60.977451714961994,-40.95113701925142,-85.28687689330086,-0.9391898512840271,0.9920245409011841,-1.4061013460159302,,,,,
3.5470599999999877,-57.33288313404366,-40.82618530888263,-86.67565699405988,-0.8311570882797241,1.0149586200714111,-1.0054963827133179,,,,,
3.556443999999999,-53.4021587717242,-40.8256215184968,-88.24263083963756,-0.5947136282920837,1.0410993099212646,-0.6521944403648376,,,,,
3.565742,-49.22035005707423,-40.96526227581988,-89.95002262613738,-0.28789588809013367,1.0507599115371704,-0.2982400059700012,,,,,
3.5751510000000053,-44.883908425790175,-41.23388613603189,-91.7677124247383,0.16509515047073364,1.0328359603881836,-0.06752714514732361,,,,,
3.584694000000013,-40.486816508198864,-41.568948746834245,-93.66220209463907,0.7165406942367554,0.9864471554756165,0.19885581731796265,,,,,
3.5940780000000245,-36.14803092826288,-41.83064461591857,-95.58534078798857,1.3524101972579956,0.8962945938110352,0.7073823809623718,,,,,
3.603464000000031,-32.11463423609362,-41.90316925842928,-97.37148641611302,1.9983117580413818,0.7943639755249023,1.2894046306610107,,,,,
3.612841000000003,-28.677943686387973,-41.84049147056303,-98.75666665431437,2.532510280609131,0.7179056406021118,1.7024508714675903,,,,,
3.622220000000027,-26.05261932531017,-41.79254282217057,-99.5275210809754,2.906454086303711,0.6475769281387329,1.9283075332641602,,,,,
3.631605000000036,-24.33169470947458,-41.8699005650023,-99.56362086146859,3.1165080070495605,0.5869271159172058,1.8385884761810303,,,,,
3.640989999999988,-23.446145201667633,-42.0941067026891,-98.89576935026044,3.1572749614715576,0.5268064141273499,1.4456851482391357,,,,,
3.650365000000022,-23.34330441623366,-42.33407651222582,-97.61837605912179,3.050229072570801,0.4812808632850647,0.9746240377426147,,,,,
3.6597730000000297,-23.965799112279424,-42.41465765612949,-95.85253515899008,2.8312981128692627,0.5058204531669617,0.5563486218452454,,,,,
3.6691509999999994,-25.216604823459225,-42.240378461963026,-93.68670317506569,2.523178815841675,0.5642921924591064,0.2149665355682373,,,,,
3.678541999999993,-26.97426463854545,-41.802829642918056,-91.15532576699529,2.144796133041382,0.6277542114257812,-0.08972376585006714,,,,,
3.687921000000017,-29.069116427165582,-41.13260871519606,-88.32343742366534,1.7163134813308716,0.6482563018798828,-0.4257783591747284,,,,,
3.697205999999994,-31.30939895262889,-40.24159847852925,-85.32878868245923,1.2945175170898438,0.6355466246604919,-0.7829478979110718,,,,,
3.7065150000000244,-33.519000389919974,-39.123907924616354,-82.33486838778526,0.9342581033706665,0.6055425405502319,-1.1023179292678833,,,,,
3.715882000000022,-35.58141272885021,-37.785387685548464,-79.51793260950784,0.5787441730499268,0.5913666486740112,-1.3481532335281372,,,,,
3.7252750000000106,-37.409037487551714,-36.24762583412986,-76.89994287765741,0.21392154693603516,0.5531277060508728,-1.467018961906433,,,,,
3.734671999999989,-38.97074685267856,-34.57682469852459,-74.55977603167871,-0.1534448266029358,0.5034390687942505,-1.4651014804840088,,,,,
3.744115000000022,-40.30225532348227,-32.863121049052026,-72.58099498195116,-0.4308839738368988,0.4984138011932373,-1.4531140327453613,,,,,
3.7535070000000132,-41.4048451889764,-31.20133610130846,-70.98662159187961,-0.6871408224105835,0.5686379075050354,-1.435046911239624,,,,,
3.762898000000007,-42.20451333600317,-29.729385454089464,-69.71258335067351,-0.888745903968811,0.7295147180557251,-1.4665056467056274,,,,,
3.7722890000000007,-42.57895929502893,-28.587851281647517,-68.68776420797559,-1.0665473937988281,1.0216059684753418,-1.5332673788070679,,,,,
3.78166200000004,-42.441552406278426,-27.778566059949394,-67.80183880444604,-1.2163572311401367,1.3295555114746094,-1.5859732627868652,,,,,
3.791043000000002,-41.736490339708084,-27.19256747183657,-67.00076994293416,-1.3585641384124756,1.5334821939468384,-1.6282694339752197,,,,,
3.809453000000019,-39.145260877190495,-26.062660996695346,-65.87010887577703,-1.6005513668060303,1.4974687099456787,-1.41355562210083,,,,,
3.8191869999999994,-37.820614465298355,-25.267873748278824,-65.79483102549277,-1.6144003868103027,1.4048635959625244,-1.181125283241272,,,,,
3.8285870000000273,-36.71444389089111,-24.2570327700734,-66.08299882257994,-1.5517761707305908,1.3656193017959595,-1.032433032989502,,,,,
3.8379510000000323,-35.77353727023468,-23.115772318411892,-66.58850903656453,-1.4803436994552612,1.2962462902069092,-0.98750901222229,,,,,
3.8473410000000285,-34.81831944457632,-21.975642411201413,-67.18460088754775,-1.4260977506637573,1.1358321905136108,-0.9208921194076538,,,,,
3.8567409999999995,-33.705192674508,-20.963381704716564,-67.8582300614043,-1.3218164443969727,0.9190826416015625,-0.8385699391365051,,,,,
3.8661010000000147,-32.37114008708312,-20.18432544898611,-68.5630397689382,-1.160246729850769,0.7148025035858154,-0.8503114581108093,,,,,
3.875489000000016,-30.735841261152547,-19.74678127430293,-69.39689125318195,-0.9666532278060913,0.5737480521202087,-0.9785665273666382,,,,,
3.884883000000002,-28.696355206739568,-19.70316769750165,-70.35566539268609,-0.7207165956497192,0.4786521792411804,-1.145702600479126,,,,,
3.8942590000000337,-26.203684327862295,-20.007501442318176,-71.48664225523623,-0.3636164665222168,0.36855554580688477,-1.2803270816802979,,,,,
3.9035630000000197,-23.274414825162204,-20.476286115120278,-72.8526497326074,0.059122949838638306,0.21669477224349976,-1.1538686752319336,,,,,
3.9131399999999985,-20.03629405271113,-20.8059842244431,-74.52512285148927,0.563942015171051,0,-0.6961863040924072,,,,,
3.922528,-16.73560844112746,-20.698308795442095,-76.45580983476101,1.0700474977493286,-0.14689365029335022,0.13409268856048584,,,,,
3.9319580000000087,-13.761468379154772,-19.979666123805092,-78.41677974556906,1.4729399681091309,-0.23979197442531586,1.2719405889511108,,,,,
3.9412750000000187,-11.53079826528129,-18.72183659730928,-80.25264705218386,1.7591248750686646,-0.348701536655426,2.359927177429199,,,,,
3.950651999999991,-10.299315388215257,-17.263985351671536,-81.84988274883885,1.9209401607513428,-0.4887959063053131,3.0991275310516357,,,,,
3.9600399999999922,-10.047694221658734,-15.879948083880759,-83.09982650121277,1.9401881694793701,-0.5715096592903137,3.467851161956787,,,,,
3.9694220000000087,-10.561996273818183,-14.723582445717263,-84.0634683809154,1.9598989486694336,-0.6135229468345642,3.5044193267822266,,,,,
3.9788130000000024,-11.606707662372498,-13.990716534192115,-84.83001856781102,1.8964064121246338,-0.6482831239700317,3.261679172515869,,,,,
3.9882029999999986,-12.913686999655848,-13.81571110187336,-85.41581961275801,1.7244232892990112,-0.6218538284301758,2.8628196716308594,,,,,
3.997581000000025,-14.307687279194718,-14.154449231853164,-85.80267532380364,1.5264145135879517,-0.5460529327392578,2.371027946472168,,,,,
4.006957999999997,-15.823569491942186,-14.859804053254475,-86.03714984574765,1.3402801752090454,-0.4435543119907379,1.8028709888458252,,,,,
4.016334000000029,-17.599881680990585,-15.799881388791322,-86.19330186269259,1.1087605953216553,-0.2783069908618927,1.1612143516540527,,,,,
4.025734,-19.733813120145907,-16.828803383709936,-86.38600493157517,0.9583017826080322,-0.03378021717071533,0.5210720896720886,,,,,
4.035104999999987,-22.333012745141758,-17.758765321654153,-86.69269286518347,0.8854647874832153,0.2835595905780792,-0.0754694938659668,,,,,
4.044307000000003,-25.4143806080691,-18.397780871149365,-87.18941004740796,0.8929184675216675,0.6709918975830078,-0.648685097694397,,,,,
4.053696000000002,-29.017710136506064,-18.599239234488394,-87.90232265862079,1.0189039707183838,1.108786940574646,-1.2055333852767944,,,,,
4.063086999999996,-33.11925002238393,-18.228649096524464,-88.90530164489768,1.12727689743042,1.5410809516906738,-1.7497867345809937,,,,,
4.072558000000015,-37.585189781418904,-17.214931292769037,-90.27537036615989,1.2844300270080566,1.8914332389831543,-2.164337158203125,,,,,
4.081931999999995,-42.261017682382125,-15.66538599903067,-92.00456807381624,1.4416401386260986,2.1844863891601562,-2.5623605251312256,,,,,
4.091314000000011,-46.727015666391004,-13.882777214760836,-93.94658920338884,1.6212948560714722,2.53853702545166,-3.0464015007019043,,,,,
4.100707,-50.289523222494694,-12.064564202257738,-95.84321581415048,1.7832454442977905,2.8550848960876465,-3.587686777114868,,,,,
4.110087000000021,-52.275371125406416,-10.191981582042851,-97.48431059743405,1.864600419998169,3.0098609924316406,-3.909141778945923,,,,,
4.119466999999986,-52.5877544613848,-8.10526776731379,-98.8450465344126,1.8415071964263916,2.943556070327759,-3.785186529159546,,,,,
4.128848000000005,-51.61954419332892,-5.484210802130013,-100.04127756868094,1.6170642375946045,2.8643226623535156,-3.4013442993164062,,,,,
4.138218999999992,-49.96417393456175,-2.0841839039661303,-101.24579090771057,1.1968079805374146,2.6429615020751953,-2.9298508167266846,,,,,
4.147627,-48.275225914091685,2.1581909838718434,-102.5834861477565,0.6940187215805054,2.2698466777801514,-2.4726312160491943,,,,,
4.157000000000039,-47.049544847712085,7.093507534765456,-104.1512085787425,0.2559814155101776,1.941218376159668,-2.0681686401367188,,,,,
4.166394000000025,-46.430521721645036,12.471190153377133,-105.92343426709496,-0.03537061810493469,1.743224859237671,-1.6723932027816772,,,,,
4.175765000000013,-46.115694137023674,17.97979232127803,-107.7219067866271,-0.3376733660697937,1.5822453498840332,-1.138810157775879,,,,,
4.185069999999996,-45.75658318596068,23.330455604623786,-109.3766474763067,-0.5638608932495117,1.2578051090240479,-0.3603026270866394,,,,,
4.194630000000018,-45.11247815719539,28.353420656964,-110.76458631470703,-0.648221492767334,0.8116241693496704,0.45401036739349365,,,,,
4.204025999999999,-43.997025706834215,32.95901705375301,-111.70223900182296,-0.7223190069198608,0.45082560181617737,1.2215230464935303,,,,,
4.213403000000028,-42.29755707365063,37.12296205986191,-112.13363731177658,-0.8963382244110107,0.09129679203033447,2.028848886489868,,,,,
4.222797000000014,-40.26673719988581,40.90855258501622,-112.25017117170994,-1.0236201286315918,-0.35209915041923523,3.0057363510131836,,,,,
4.232168999999999,-38.59351268147236,44.33071999378641,-112.34397528048618,-1.0470185279846191,-0.7608585953712463,3.6818807125091553,,,,,
4.241548000000023,-37.70492783038615,47.23395247427194,-112.33257062151797,-1.0190050601959229,-0.9242830276489258,4.019493103027344,,,,,
4.250940000000014,-37.65216772390097,49.41836938250684,-112.23901754254305,-0.9309494495391846,-0.9599847793579102,4.077036380767822,,,,,
4.260319000000038,-38.2111244680088,50.78453667822742,-111.99718395176872,-0.8585594296455383,-0.8699142932891846,3.9054787158966064,,,,,
4.269713000000024,-39.06974547943828,51.37203542935332,-111.58206871797762,-0.7410975694656372,-0.7662819623947144,3.5166966915130615,,,,,
4.279097000000036,-39.89051959044857,51.237428875985316,-110.89989267296396,-0.5654223561286926,-0.5739837288856506,3.0632312297821045,,,,,
4.288486000000034,-40.56529990763918,50.48684657591377,-109.8915300770938,-0.43095099925994873,-0.36093440651893616,2.5698342323303223,,,,,
4.297860000000014,-41.11868028764255,49.268949503945436,-108.59227061485298,-0.294832706451416,-0.1586925983428955,2.1729164123535156,,,,,
4.307247000000018,-41.75487133278571,47.72144895402919,-107.1288590280217,-0.17706668376922607,0,1.7614860534667969,,,,,
4.316636000000017,-42.59836397008042,45.909763924286096,-105.54162139126912,-0.09329676628112793,0.199377179145813,1.3095242977142334,,,,,
4.326020000000028,-43.63879333461259,43.87687743615502,-103.82807038068692,-0.025222837924957275,0.4105885326862335,0.7795862555503845,,,,,
4.335423999999989,-44.71377665978315,41.685024214875476,-101.98512708586992,0.0733371376991272,0.6076595187187195,0.126387357711792,,,,,
4.344605000000001,-45.63622206147532,39.44622186977145,-100.10294002689355,0.1912754774093628,0.7528848052024841,-0.5579994320869446,,,,,
4.353987000000018,-46.313186375257814,37.29076832627694,-98.21399658903886,0.33697396516799927,0.8422348499298096,-1.2761433124542236,,,,,
4.363448000000005,-46.689216012980204,35.31869802550186,-96.42441570971889,0.5603136420249939,0.8904247283935547,-2.1640024185180664,,,,,
4.372830000000022,-46.605837929955335,33.55181113389413,-94.84374200631679,0.9894524812698364,0.8764164447784424,-3.2275094985961914,,,,,
4.382210999999984,-45.81394995114596,32.08658298389397,-93.33771385448358,1.428877830505371,0.8398325443267822,-4.101192474365234,,,,,
4.391597999999988,-44.200675721678124,31.116678200622513,-92.00642289217836,1.7143362760543823,0.717154860496521,-4.596073627471924,,,,,
4.4103660000000104,-39.56548265390375,31.9681045822301,-90.4376478316365,1.4632368087768555,0.3419892191886902,-4.53358268737793,,,,,
4.419751000000019,-37.215320298969395,34.02346174325838,-90.45189487131069,1.1309821605682373,0.3743942975997925,-4.1897382736206055,,,,,
4.429130999999984,-34.78514172482753,36.91387425757406,-90.7566600021503,0.8026479482650757,0.5842383503913879,-3.7837610244750977,,,,,
4.438513,-31.931525423887766,40.29187521367658,-91.04136198250272,0.47661593556404114,0.8992364406585693,-3.3271892070770264,,,,,
4.447897000000012,-28.32082951998812,43.91185157248415,-91.06967595712973,0.2219013273715973,1.163315773010254,-2.7557554244995117,,,,,
4.457201999999995,-23.78960151263484,47.57809887287184,-90.64234829750458,-0.19095194339752197,1.3542535305023193,-2.048811912536621,,,,,
4.466585000000009,-18.709628313671544,51.09197112373948,-89.98799166729461,-0.713170051574707,1.2306599617004395,-1.0057748556137085,,,,,
4.476149000000021,-13.956649443629797,54.400206115309025,-89.70597842437634,-0.8829381465911865,0.7482040524482727,0.2649132013320923,,,,,
4.485537000000022,-10.696797895197307,57.57786450021141,-90.32883960406731,-0.8604600429534912,0.5084600448608398,1.217036485671997,,,,,
4.504295000000013,-10.833208119983858,63.22525831498168,-95.06237708373216,-0.7359121441841125,1.2985681295394897,2.2417948246002197,,,,,
4.513690999999994,-13.606208415375496,65.77231346321427,-98.77178854835897,-0.7248265147209167,1.5920121669769287,3.167708396911621,,,,,
4.523063000000036,-17.588235018603,68.27512935353931,-102.95284718544455,-0.7853685021400452,1.5668202638626099,4.156282424926758,,,,,
4.53245400000003,-21.922096670190005,70.5192101560228,-106.80072751277677,-0.8840711116790771,1.2129888534545898,4.8229289054870605,,,,,
4.541834999999992,-25.230408009111805,72.14337194751566,-109.21662204940195,-0.9760136008262634,0.717279314994812,5.1562628746032715,,,,,
4.551212000000021,-26.961453236552536,72.68945845429218,-109.89913196376001,-0.9399504065513611,0.3415710926055908,4.969088077545166,,,,,
4.560584000000006,-26.498132589740088,72.00918000781776,-108.52755694216211,-0.8076424598693848,0.21783438324928284,4.274924278259277,,,,,
4.569990000000018,-24.473409951876295,70.20779067136257,-105.95867753504196,-0.6235978603363037,0.2581257224082947,3.3764660358428955,,,,,
4.579380000000015,-21.81236261428318,67.54745353321442,-103.2608333348187,-0.41121262311935425,0.34833088517189026,2.3043007850646973,,,,,
4.5887539999999944,-18.950552981921007,64.43549776350402,-100.76355559566544,-0.15710067749023438,0.41683417558670044,1.3110928535461426,,,,,
4.598136000000011,-16.217389659439686,61.322337140465095,-98.49289176113159,0.18022853136062622,0.3416658937931061,0.4393352270126343,,,,,
4.607516000000032,-14.298684370254202,58.63239334252172,-96.65209231547253,0.40098440647125244,0.23713767528533936,-0.3306686282157898,,,,,
4.616720999999984,-14.324443039339451,56.60669765192196,-95.8934549479287,0.6431313753128052,0.10274334251880646,-0.9256190061569214,,,,,
4.626188000000013,-16.159066035081352,55.424903617557455,-96.1492640016474,0.9078102707862854,-0.04800210893154144,-1.3219575881958008,,,,,
4.6355780000000095,-19.2187318095711,55.174869824402556,-97.15755222450596,1.2088619470596313,-0.18850885331630707,-1.7443586587905884,,,,,
4.644960000000026,-22.856034138502913,55.68650432027004,-98.7858733648596,1.521612524986267,-0.29807770252227783,-2.280158758163452,,,,,
4.654345000000035,-26.203835418668568,56.64512047784035,-100.72202256128655,1.6936761140823364,-0.22398942708969116,-2.7163963317871094,,,,,
4.663726999999994,-28.787589028773002,57.7947423329071,-102.83403510503285,1.6825792789459229,-0.051033467054367065,-2.8968334197998047,,,,,
4.673113000000001,-30.549850363269783,59.17815152744435,-105.1807427150814,1.6324917078018188,0.03448657691478729,-2.752653121948242,,,,,
4.682492000000025,-31.780960506355036,61.073773670042954,-107.78845857188813,1.492078423500061,0.11004960536956787,-2.5012614727020264,,,,,
4.691867000000002,-33.13227960693998,63.61800534010441,-110.99763858367162,1.2545347213745117,0.2518981695175171,-2.1942920684814453,,,,,
4.701175000000035,-35.235353447596616,66.75960118143308,-115.15258536003994,0.9098325967788696,0.4328545928001404,-1.826061487197876,,,,,
4.710567000000026,-38.90757775506607,70.34279006344232,-120.9610841179528,0.4839814305305481,0.5762962102890015,-1.3102262020111084,,,,,
4.720140000000015,-45.69017337297649,74.04386065181788,-129.8690091926223,0,0.638589084148407,-0.5494787096977234,,,,,
4.7295010000000275,-58.46532575883586,77.29522144519643,-144.59415912536966,-0.4833561182022095,0.5531934499740601,0.44960179924964905,,,,,
4.738887000000034,-79.51219263620217,79.14582937828658,-167.1529031008337,-0.7707826495170593,0.5477300882339478,1.35994553565979,,,,,
4.748269999999991,-103.37359557048849,78.79168513535879,167.9800688235026,-0.9508174061775208,0.6568356156349182,2.0789425373077393,,,,,
4.757477999999992,-121.08070883419003,76.88159727566047,149.63920885488338,-0.9819973707199097,0.6967630386352539,2.524955987930298,,,,,
4.766865999999993,-132.2620368780404,74.66814737093881,137.84468025898707,-1.1051937341690063,0.7551636695861816,2.7468905448913574,,,,,
4.776254999999992,-139.41151173798528,72.74106308887907,129.98029817266362,-1.349846601486206,0.7864316701889038,2.9378480911254883,,,,,
4.785635000000013,-144.2451554866689,71.20206224938491,124.27222770946655,-1.6719434261322021,0.6208895444869995,3.1811952590942383,,,,,
4.7950289999999995,-147.77206540790863,69.97192754136583,119.80243801248851,-1.972367286682129,0.3405017852783203,3.5902960300445557,,,,,
4.804405000000031,-150.31358752421744,68.98753246734425,116.64338377602333,-2.1574859619140625,0.037033021450042725,4.046896934509277,,,,,
4.813783000000001,-151.72462563766547,68.33153515229009,115.3125164731982,-2.2433924674987793,-0.2125675529241562,4.217947483062744,,,,,
4.823172999999997,-151.69184212241825,68.19092034409778,116.19332228853618,-2.176469326019287,-0.3330564498901367,4.085898399353027,,,,,
4.832564999999988,-149.77784247167887,68.62918980740682,119.56426804182287,-2.0187149047851562,-0.22674691677093506,3.800893783569336,,,,,
4.841577000000029,-145.5767322151591,69.47354293958101,125.61216933524474,-1.7962861061096191,0,3.370706558227539,,,,,
4.851322000000039,-138.84225204073212,70.47916953087011,134.40685089938714,-1.5606725215911865,0.21771101653575897,2.8809194564819336,,,,,
4.860892000000035,-129.48658822867748,71.3393603340819,146.05322974257268,-1.3256700038909912,0.4565245807170868,2.4377667903900146,,,,,
4.870270000000005,-117.87401938176835,71.69463492358409,160.295314228766,-1.122892141342163,0.6794978976249695,2.002948045730591,,,,,
4.879649000000029,-105.22358977036801,71.2084091840671,175.93906360862516,-0.9721158146858215,0.8976320624351501,1.4951508045196533,,,,,
4.889036000000033,-93.1962306298581,69.75737931597453,-168.80016967007737,-0.7722004652023315,1.125272274017334,0.8525545001029968,,,,,
4.898417999999992,-82.84217423995865,67.46606869945012,-155.30053299894743,-0.5064279437065125,1.2964563369750977,0.23236492276191711,,,,,
4.917002000000025,-67.45577643333618,61.388329774484546,-134.55566585354717,-0.0539473295211792,1.386065125465393,-0.6240119338035583,,,,,
4.926392000000021,-61.835049917129254,58.128530292359756,-126.58142250933089,0.06380200386047363,1.353163480758667,-0.8902119994163513,,,,,
4.935775000000035,-57.34123764273048,54.86079644991594,-119.74915043994291,0.1545671820640564,1.300501823425293,-1.0799216032028198,,,,,
4.945155,-53.817867780956135,51.64908183800864,-113.81610823065016,0.2469402551651001,1.2557487487792969,-1.2339599132537842,,,,,
4.9545459999999935,-51.091828168947806,48.58456129908796,-108.55876085059707,0.3043915629386902,1.1799027919769287,-1.3648796081542969,,,,,
4.963911999999993,-49.0222504929633,45.71750265671202,-103.88696555543854,0.29964470863342285,1.0075492858886719,-1.6151418685913086,,,,,
4.973298999999997,-47.47419959887089,43.07082271136234,-99.78672904142842,0.2539523243904114,0.7582103610038757,-1.9606924057006836,,,,,
4.9826889999999935,-46.28683442874248,40.52473496444935,-96.29578973030388,0.2974426746368408,0.5020895004272461,-2.2096123695373535,,,,,
4.9920830000000365,-45.37677049506449,37.92729761286916,-93.4123132728467,0.4026273488998413,0.32888397574424744,-2.353332996368408,,,,,
5.001472000000035,-44.82519621694348,35.2379534871132,-91.1184037566526,0.5323235988616943,0.3203066885471344,-2.524219036102295,,,,,
5.010916000000009,-44.68284345822995,32.53959007312027,-89.37921833037147,0.7548002004623413,0.47104135155677795,-2.716825008392334,,,,,
5.020316000000037,-44.86291207778447,30.034868746485397,-88.04340868151141,1.053188681602478,0.6590038537979126,-2.8886735439300537,,,,,
5.029685000000029,-45.043839156792814,27.94168523255131,-86.91789823908337,1.2625503540039062,0.7776546478271484,-3.0802993774414062,,,,,
5.039062000000001,-44.80416119425077,26.359458123962114,-85.87270238746851,1.36705482006073,0.7685461044311523,-3.200429677963257,,,,,
5.0484500000000025,-43.856332057145266,25.200392854896776,-84.88602748029572,1.3651870489120483,0.6469189524650574,-3.2137155532836914,,,,,
5.057838000000004,-42.038052993037695,24.26529103962433,-83.93677892524553,1.3354796171188354,0.45576971769332886,-3.0677945613861084,,,,,
5.06721600000003,-39.4644871985838,23.410121736580066,-83.07218375456127,1.2652194499969482,0.28169751167297363,-2.8000357151031494,,,,,
5.07659799999999,-36.447106117878796,22.627824841126913,-82.49058499021314,1.1650570631027222,0.18527966737747192,-2.400951385498047,,,,,
5.085972000000027,-33.35396649056659,22.030716714336265,-82.37201531352514,1.0629409551620483,0.20905768871307373,-1.87571382522583,,,,,
5.095370000000003,-30.506200365009636,21.738848493702108,-82.82836801807147,1.0179539918899536,0.3270830512046814,-1.2682911157608032,,,,,
5.104669999999999,-28.038456713739627,21.835012911700765,-83.71892442604529,0.9568045139312744,0.5073463916778564,-0.5682339072227478,,,,,
5.1142450000000395,-26.076437173971605,22.347828052226994,-85.0302882293145,0.8775017261505127,0.7181440591812134,0.4524507522583008,,,,,
5.1236279999999965,-24.95067735058408,23.342699713421954,-86.75994256943983,0.8417752981185913,0.7269601821899414,1.9669517278671265,,,,,
5.142368000000033,-25.903143519700013,26.520264676132044,-90.62937979073705,0.640739917755127,0.42528924345970154,4.758807182312012,,,,,
5.151779000000033,-27.18793529387763,27.583048585658947,-91.73274581236073,0.5376995205879211,0.16854353249073029,5.334282398223877,,,,,
5.161158999999998,-28.20372503800407,27.41170960059749,-91.86152165059485,0.4023107886314392,-0.10212668776512146,5.315481185913086,,,,,
5.170538000000022,-28.46071097790673,25.785459373296124,-91.19742649082251,0.41036009788513184,-0.23066988587379456,4.6222662925720215,,,,,
5.179918999999984,-27.670640811989553,23.01928675967028,-89.9043874027369,0.17729829251766205,-0.20601221919059753,3.7042572498321533,,,,,
5.1893100000000345,-26.114278450431794,19.449582145035254,-88.30634933080945,0.08190244436264038,-0.11906975507736206,2.887742757797241,,,,,
5.198692999999992,-24.442134520894765,15.35620881009033,-86.68546613463228,0,0.033734679222106934,2.207991361618042,,,,,
5.208079999999995,-23.318296124468556,10.949410061931022,-85.10748445164693,-0.12579314410686493,0.23954984545707703,1.5337624549865723,,,,,
5.2174550000000295,-23.12758339623397,6.376736873711202,-83.52479242247462,-0.25713014602661133,0.48599907755851746,0.7755136489868164,,,,,
5.22685899999999,-23.9004233618669,1.7484605315236033,-81.92824620403651,-0.2901042401790619,0.8007290363311768,-0.09276479482650757,,,,,
5.236120000000028,-25.437785970079943,-2.76079110342016,-80.20533441085763,-0.35170242190361023,1.119553565979004,-1.1657674312591553,,,,,
5.245497999999998,-27.440380066297564,-6.916411934268276,-78.3411456221055,-0.3741815984249115,1.3097652196884155,-2.2457237243652344,,,,,
5.2548869999999965,-29.700188547351626,-10.491995012539276,-76.29097841065591,-0.2958027720451355,1.2055150270462036,-3.2482337951660156,,,,,
5.264251999999999,-31.95320860404553,-13.349000241225022,-74.14611090786428,-0.22551469504833221,0.9890211820602417,-3.946315050125122,,,,,
5.273653000000024,-33.918051189915516,-15.525782702489076,-72.16809965797222,-0.09028489887714386,0.6506184339523315,-4.504206657409668,,,,,
5.283042000000023,-35.24239668496925,-17.17721122644332,-70.55291668663426,-0.42294105887413025,0.3070560097694397,-4.663791656494141,,,,,
5.29242099999999,-35.616331307131944,-18.10484543841018,-69.62199623137235,-0.4969298243522644,0.06918343901634216,-4.451960563659668,,,,,
5.301819000000023,-34.98678195378199,-18.42555196231391,-69.515119058834,-0.3782931864261627,0,-3.9924705028533936,,,,,
5.311194999999998,-33.650604722815224,-18.437468405024553,-69.98037807488386,-0.3433545231819153,0.0823366641998291,-3.459305763244629,,,,,
5.320582999999999,-31.897565711162056,-18.383184406493694,-70.89644764213648,-0.24217157065868378,0.16496244072914124,-2.7891435623168945,,,,,
5.329973999999993,-29.928647804499757,-18.331068572420083,-71.99764360109938,-0.07758426666259766,0.19202864170074463,-2.202000141143799,,,,,
5.339353000000017,-27.831018285083573,-18.278284548569744,-73.17732121404363,0.09457835555076599,0.18881872296333313,-1.8366920948028564,,,,,
5.348676000000012,-25.525875997921634,-18.284251790360607,-74.40218981402724,0.2840675115585327,0.1978595107793808,-1.4682936668395996,,,,,
5.358041000000014,-23.018816627202302,-18.412793528401387,-75.66521617587284,0.534965991973877,0.1675197333097458,-0.9579254984855652,,,,,
5.3675890000000095,-20.346809054553418,-18.678894686224794,-77.07029369259371,0.8431268930435181,0.19055268168449402,-0.25015926361083984,,,,,
5.376982999999996,-17.716332152184567,-18.957421049579224,-78.69548153108859,1.2494215965270996,0.20508402585983276,0.5706571936607361,,,,,
5.386357000000032,-15.399638319240024,-19.03768229724697,-80.44700835448695,1.7512249946594238,0.12268230319023132,1.4944753646850586,,,,,
5.395737999999994,-13.747498352483875,-18.883782559192664,-82.15852063183499,2.2073614597320557,0.09040945768356323,2.100429058074951,,,,,
5.405124000000001,-12.907336105525909,-18.821346084121064,-83.68631621218617,2.6666245460510254,0.24046750366687775,2.2818398475646973,,,,,
5.4145110000000045,-12.727176097044433,-19.203702958118182,-84.82778163917351,3.094147205352783,0.4815744459629059,2.1722800731658936,,,,,
5.423898000000008,-12.792037360630049,-20.134933040189292,-85.48109448669007,3.2103586196899414,0.7322378754615784,1.8450350761413574,,,,,
5.433275000000037,-12.846519316906422,-21.415238952261547,-85.50983994505772,3.158966302871704,0.8635941743850708,1.4266924858093262,,,,,
5.442659999999989,-12.878635282383225,-22.74277344158575,-84.79678104229791,3.0128118991851807,0.9119377732276917,1.0517306327819824,,,,,
5.452044999999998,-13.067862082433626,-23.88698622711246,-83.38904454054544,2.6804444789886475,0.8050267696380615,0.608469545841217,,,,,
5.461418000000037,-13.626549605614406,-24.787982911393286,-81.47486328851734,2.360629081726074,0.7314108610153198,0.21129798889160156,,,,,
5.4708009999999945,-14.670832229700224,-25.389724839479477,-79.1970046158846,1.959985375404358,0.6121277809143066,-0.20832520723342896,,,,,
5.480204000000015,-16.109739786188012,-25.725952414143737,-76.71433234473324,1.6465193033218384,0.5178871154785156,-0.5814878940582275,,,,,
5.489400999999987,-17.84816828605672,-25.79942286324695,-74.12930466121837,1.3386566638946533,0.4760258197784424,-0.9294595718383789,,,,,
5.498781000000008,-19.754947525989852,-25.67462192044122,-71.56996527194163,1.0339107513427734,0.5139799118041992,-1.2073936462402344,,,,,
5.50816100000003,-21.723597356595022,-25.400403964643086,-69.10816671246124,0.7542132139205933,0.5476065874099731,-1.433072805404663,,,,,
5.517558000000008,-23.71923657968886,-24.950317192663842,-66.71284732664645,0.48609060049057007,0.587731122970581,-1.577700138092041,,,,,
5.527038000000005,-25.769843979747783,-24.253239484114893,-64.40337303888646,0.17043647170066833,0.6133018732070923,-1.7302074432373047,,,,,
5.536417000000029,-27.796302202292807,-23.279325123567315,-62.18795866510136,-0.1831791251897812,0.6091700792312622,-1.8749691247940063,,,,,
5.5457830000000286,-29.696595395500037,-22.063341780177883,-60.11916668866165,-0.5425284504890442,0.5398929119110107,-1.982591152191162,,,,,
5.555169000000035,-31.390343327836057,-20.70708825630856,-58.297685734024306,-0.8301234245300293,0.41767895221710205,-2.0399646759033203,,,,,
5.564558000000034,-32.800452885184676,-19.33973677292978,-56.791700376663215,-1.056581735610962,0.31521573662757874,-2.077545642852783,,,,,
5.573941999999988,-33.81409622133309,-18.125122706107824,-55.637251203160645,-1.2080379724502563,0.3158752918243408,-2.065495252609253,,,,,
5.583317000000022,-34.34839411537756,-17.217521763294624,-54.81666400660219,-1.3000609874725342,0.4032767415046692,-2.0037431716918945,,,,,
5.592697999999984,-34.36987540125342,-16.683509282515804,-54.25714879166417,-1.3560495376586914,0.4834303557872772,-1.921603798866272,,,,,
5.602082999999993,-33.90975363446034,-16.490456388155614,-53.902746795990495,-1.4028403759002686,0.5120041370391846,-1.8583992719650269,,,,,
5.611476000000039,-33.089651743945836,-16.54865668324115,-53.79644850736333,-1.4186983108520508,0.5074775218963623,-1.7698404788970947,,,,,
5.620848000000024,-32.07398089677206,-16.733666533460553,-54.007778209059545,-1.3932440280914307,0.5082842707633972,-1.6296112537384033,,,,,
5.630245000000002,-30.970442024559137,-16.909439277954142,-54.54981430079741,-1.31126868724823,0.5272406339645386,-1.4403655529022217,,,,,
5.6396330000000034,-29.830346708206125,-16.993961561571,-55.42489638699312,-1.1897035837173462,0.5206103324890137,-1.2390543222427368,,,,,
5.649014000000022,-28.676982223042476,-16.99307560927146,-56.5545406332673,-1.0876967906951904,0.48429691791534424,-1.0647337436676025,,,,,
5.658324999999991,-27.50926362537914,-16.970491331617776,-57.828197215514344,-0.9994798898696899,0.42640793323516846,-0.933958113193512,,,,,
5.667707000000007,-26.275739822513646,-17.014444732896976,-59.27233469802061,-0.9365295171737671,0.34426024556159973,-0.8608428239822388,,,,,
5.677092000000016,-24.890812049656223,-17.21970078824788,-60.88138602366609,-0.8662651777267456,0.23293346166610718,-0.8632792234420776,,,,,
5.686464000000001,-23.266222935697726,-17.693565157848823,-62.67470792885561,-0.7914388179779053,0.13719935715198517,-0.9615973234176636,,,,,
5.6958569999999895,-21.339863055604706,-18.484092501394297,-64.63594653397527,-0.693290114402771,0.06306314468383789,-1.1161624193191528,,,,,
5.70531299999999,-19.04565113356661,-19.542502116418056,-66.87510078210067,-0.5677708387374878,0,-1.2028814554214478,,,,,
5.714694000000009,-16.367107916044272,-20.7643156855037,-69.5024611810296,-0.3652615547180176,0,-1.2602262496948242,,,,,
5.723994000000005,-13.357273945791883,-22.009896484003832,-72.49785883120256,-0.08489573001861572,0,-1.2272906303405762,,,,,
5.733374000000026,-10.10186638356317,-23.09101252475977,-75.87744676328398,0.3034500777721405,0.0744827389717102,-1.0442140102386475,,,,,
5.742947000000015,-6.70980628682922,-23.810135526424418,-79.55261718524316,0.7362597584724426,0.19766443967819214,-0.6775534152984619,,,,,
5.752337000000011,-3.3746814653206774,-24.056551689669746,-83.40270834560145,1.2364327907562256,0.3790045380592346,-0.1663837432861328,,,,,
5.7616950000000315,-0.3512344256715455,-23.885243465127065,-87.27122057032346,1.7347288131713867,0.5763211250305176,0.3810553550720215,,,,,
5.771098999999992,2.1699146065766377,-23.441414269923374,-91.03582675349952,2.120267868041992,0.7860777378082275,0.8282790184020996,,,,,
5.780471000000034,4.013634089494825,-22.800156100097,-94.64092416266121,2.447272777557373,1.0544590950012207,1.2778632640838623,,,,,
5.789847000000009,4.983532867937678,-22.058053911602716,-98.01255349113552,2.8123130798339844,1.353476881980896,1.6296720504760742,,,,,
5.79923100000002,5.086902770081517,-21.40918611216937,-100.9941796092889,3.224212884902954,1.7496474981307983,1.8013219833374023,,,,,
5.808613000000037,4.459163230508042,-21.03154472161008,-103.34407303423039,3.4131133556365967,2.0878067016601562,1.716598629951477,,,,,
5.818007000000023,3.3526930169675486,-20.870779894053392,-104.91429333962888,3.399629592895508,2.254814863204956,1.5094091892242432,,,,,
5.827380000000005,1.9026160886889296,-20.76596937010038,-105.5996274470238,3.223219394683838,2.1927719116210938,1.2251231670379639,,,,,
5.836778000000038,0.12327701080687337,-20.592770600006343,-105.42056773766377,2.890547513961792,2.025625705718994,1.0595743656158447,,,,,
5.846156000000008,-2.0742178966334777,-20.274869031032598,-104.55895320655567,2.442638635635376,1.802951455116272,1.0670337677001953,,,,,
5.855548999999996,-4.812910963542948,-19.774751070488485,-103.27720592509183,1.9733319282531738,1.6349427700042725,1.0240483283996582,,,,,
5.864936999999998,-8.179371982165557,-19.099808192908693,-101.74999519249045,1.5510964393615723,1.5130407810211182,0.8961267471313477,,,,,
5.874318000000017,-12.154058472160594,-18.303846233586704,-100.11219995922607,1.153602957725525,1.4335530996322632,0.6978928446769714,,,,,
5.883702000000028,-16.622185256410763,-17.476128323956868,-98.43243293201122,0.8113547563552856,1.3745161294937134,0.38824546337127686,,,,,
5.8929070000000365,-21.36320460003041,-16.713920197960395,-96.72980145638246,0.5071141123771667,1.3187896013259888,0,,,,,
5.9023070000000075,-26.13523481921433,-16.100074806337197,-95.07434225832992,0.23191142082214355,1.2467155456542969,-0.44506120681762695,,,,,
5.911747999999989,-30.61631925322807,-15.711586495051925,-93.44052280312567,0,1.1778510808944702,-0.9824057817459106,,,,,
5.921149000000014,-34.51804547636859,-15.65088205403773,-91.86389639447438,-0.11751975119113922,1.161512851715088,-1.6125056743621826,,,,,
5.9305140000000165,-37.63436829943106,-16.00635420370074,-90.31645513108923,-0.12714864313602448,1.2030483484268188,-2.3499045372009277,,,,,
5.939910999999995,-39.850742146385,-16.734481395308823,-88.77198573690724,0,1.293437123298645,-3.029045820236206,,,,,
5.949266000000023,-41.19373059624928,-17.602043201600694,-87.21859725444438,0.18535131216049194,1.3185362815856934,-3.5366740226745605,,,,,
5.958653000000027,-41.86336364479837,-18.28624571349997,-85.75747292984377,0.3328346610069275,1.2600046396255493,-3.9537925720214844,,,,,
5.968037000000038,-42.14229099263171,-18.510286163698954,-84.57899153791628,0.4213562309741974,1.1694035530090332,-4.278451919555664,,,,,
5.977419999999995,-42.179619268966874,-18.06365053725273,-83.91450216100492,0.41948583722114563,1.1195318698883057,-4.389650344848633,,,,,
5.9868020000000115,-41.928846634630766,-16.820287327518187,-83.86008856957055,0.3545445501804352,1.1420164108276367,-4.300652503967285,,,,,
5.9961999999999875,-41.22253613875799,-14.856474477855445,-84.28101974953199,0.2550247311592102,1.1793694496154785,-4.047606945037842,,,,,
6.005570000000034,-39.91630834165942,-12.429009014138183,-84.8931649957315,0.09391763806343079,1.1814866065979004,-3.6655380725860596,,,,,
6.014963000000023,-37.93079860035657,-9.786270281307129,-85.53225407731183,-0.07530181109905243,1.1955137252807617,-3.231915235519409,,,,,
6.024349000000029,-35.256967666890425,-7.090214116561809,-86.13963930445658,-0.2361603081226349,1.240659475326538,-2.773062229156494,,,,,
6.033726999999999,-31.96733299146839,-4.42369471812088,-86.68940877733948,-0.3743235468864441,1.206911563873291,-2.282738208770752,,,,,
6.043127000000027,-28.279968691316157,-1.819077843134883,-87.23940511825606,-0.47289562225341797,1.0615826845169067,-1.7102866172790527,,,,,
6.052507999999989,-24.621692675613158,0.7607963202234908,-87.94570322748612,-0.4503219425678253,0.8118692636489868,-1.1351858377456665,,,,,
6.061804999999993,-21.451912255185416,3.443754631198945,-89.01523081546863,-0.2990991771221161,0.600520670413971,-0.6596679091453552,,,,,
6.071369000000004,-19.063197431411776,6.421927968274639,-90.46132547791666,-0.1353224515914917,0.5924742221832275,-0.21845191717147827,,,,,
6.080755000000011,-17.511932866765545,9.89296554807641,-92.26594993496902,0,0.7500268220901489,0.4488864541053772,,,,,
6.090137000000027,-16.938951231280754,13.957698453673911,-94.39779712632412,0.17532606422901154,0.8834787607192993,1.5143134593963623,,,,,
6.099518999999987,-17.64296474391634,18.408108752106795,-96.62105270291325,0.5844281911849976,0.8646367788314819,2.898294448852539,,,,,
6.108883999999989,-19.739509535013646,22.703202045361774,-98.61683459435291,0.8566345572471619,0.8356873989105225,4.177857398986816,,,,,
6.11827500000004,-22.73711424797749,26.227705197176366,-99.91169830354312,0.8604007959365845,0.713931679725647,4.735867023468018,,,,,
6.127675000000011,-25.74505104696066,28.615003733309575,-100.197726751443,0.7827029228210449,0.5218574404716492,4.4711432456970215,,,,,
6.13705600000003,-28.06156926137605,29.90495763063965,-99.52638931551108,0.7842879891395569,0.3292180895805359,3.6741442680358887,,,,,
6.146448000000021,-29.34227221014892,30.380178201561474,-98.2963877040356,0.6999605298042297,0.20436029136180878,2.8621163368225098,,,,,
6.155824999999993,-29.693976351838607,30.32056577469727,-96.91645509052512,0.579014778137207,0.14432495832443237,2.1732611656188965,,,,,
6.165212999999994,-29.356851707242736,29.945762324446456,-95.4142336871711,0.521385133266449,0.1378553807735443,1.7045396566390991,,,,,
6.174603999999988,-28.860267602877492,29.32859676657983,-93.86167889702719,0.5693628787994385,0.15362897515296936,1.2677574157714844,,,,,
6.18397600000003,-28.672283899623988,28.534747021534848,-92.39767408469832,0.5960327386856079,0.2231454700231552,0.6295160055160522,,,,,
6.1933610000000385,-28.935372744989913,27.722704278570347,-91.01704268839042,0.5940260291099548,0.3036012053489685,-0.12566417455673218,,,,,
6.2026500000000055,-29.662965975296615,27.076081398192006,-89.83553926020205,0.6186542510986328,0.3518425226211548,-0.8703400492668152,,,,,
6.2120180000000005,-31.04935246294693,26.70020873058828,-89.02315622197482,0.7152832746505737,0.3124276101589203,-1.486877679824829,,,,,
6.221417000000031,-33.31332072527092,26.669085120536483,-88.63970666373895,0.8385058641433716,0.260696679353714,-2.0060577392578125,,,,,
6.230791000000011,-36.27950116036242,27.039593980880618,-88.65881470537232,0.9572471380233765,0.3262336254119873,-2.4345617294311523,,,,,
6.240177000000017,-39.43319363731752,27.803454732621166,-89.03061884452941,1.0779049396514893,0.45156130194664,-2.939220905303955,,,,,
6.249567000000013,-42.09407699493309,28.863824395188033,-89.68236518507527,1.1700785160064697,0.5473006963729858,-3.3994951248168945,,,,,
6.258936000000006,-43.813455126817296,30.10785438856388,-90.52613394247031,1.2604703903198242,0.561820387840271,-3.6090919971466064,,,,,
6.2683210000000145,-44.56237933297639,31.572529431954084,-91.49479933833092,1.259726643562317,0.6271011829376221,-3.546001434326172,,,,,
6.277701000000036,-44.594161856257166,33.41982438367903,-92.64963247804447,1.1400307416915894,0.7502091526985168,-3.328375816345215,,,,,
6.287102000000004,-44.22366086754238,35.78573079776249,-94.09339200076757,0.9453889727592468,0.8383355140686035,-3.021085262298584,,,,,
6.296480000000031,-43.82503336876023,38.69903733770176,-95.94436286051238,0.7313710451126099,0.9164273142814636,-2.65584135055542,,,,,
6.305858999999998,-43.67533151098032,42.114624536905716,-98.19345882474632,0.48761746287345886,1.0000250339508057,-2.2515950202941895,,,,,
6.315162999999984,-44.03714023775657,45.94144001145784,-101.02015335068366,0.16353118419647217,1.0326288938522339,-1.7150285243988037,,,,,
6.324555000000032,-45.38924900841107,50.021936173850264,-104.77282211669414,-0.21068376302719116,1.016879677772522,-0.9897205829620361,,,,,
6.343480999999997,-53.17008033635235,58.19859288617197,-116.14257239689988,-0.7358742952346802,0.6426205039024353,0.7938234806060791,,,,,
6.352880000000027,-60.09242907414764,61.654985525818255,-123.95748035324425,-0.7834852933883667,0.39227551221847534,1.6252412796020508,,,,,
6.3622629999999845,-68.10859549536931,64.44127647964328,-132.38673473529246,-0.8563622832298279,0.2873508036136627,2.1812992095947266,,,,,
6.371644000000003,-75.85956090764628,66.57171096058904,-140.45302275364853,-0.9553834795951843,0.17912545800209045,2.583697557449341,,,,,
6.3810190000000375,-82.08832935420725,68.222007757744,-147.29756776913092,-1.0350812673568726,-0.027317523956298828,2.8969428539276123,,,,,
6.390401999999995,-86.25467058551315,69.62252502821123,-152.6205723028718,-1.125598669052124,-0.2830423414707184,3.1165616512298584,,,,,
6.3998000000000275,-88.58333632269442,70.77644390904601,-156.57544768791976,-1.2112523317337036,-0.528512716293335,3.2465784549713135,,,,,
6.409185000000036,-89.79763735434148,71.61131783341158,-159.45359289641252,-1.2878071069717407,-0.7288675904273987,3.2975242137908936,,,,,
6.418566999999996,-90.80927952021932,72.05139385884628,-161.69928317577111,-1.3146919012069702,-0.8416029214859009,3.341299057006836,,,,,
6.427953000000002,-92.3085047945303,72.03811621235376,-163.63497786161653,-1.299635648727417,-0.8916217088699341,3.2817800045013428,,,,,
6.437334000000021,-94.37344662000099,71.52929143855067,-165.27099143707105,-1.2323837280273438,-0.8748299479484558,3.100513458251953,,,,,
6.446710999999993,-96.65622019470665,70.5132676369701,-166.3632111351143,-1.1002905368804932,-0.7754513025283813,2.866872549057007,,,,,
6.45609300000001,-98.75585190442402,69.02085629788489,-166.67981331587922,-0.902630627155304,-0.6062911748886108,2.571850299835205,,,,,
6.465481000000011,-100.36017076055539,67.18535978529226,-166.10084598406317,-0.7247453331947327,-0.37790459394454956,2.2349889278411865,,,,,
6.474873000000002,-101.46346513314525,65.15492839388278,-164.81225473449092,-0.5897343158721924,-0.1489330530166626,1.9486424922943115,,,,,
6.484259000000009,-102.28827820613932,63.017960926343534,-163.14179931607543,-0.4303528666496277,0.03143933415412903,1.6991569995880127,,,,,
6.493642000000023,-103.00573842960328,60.83438177070411,-161.319545788882,-0.29432302713394165,0.20789378881454468,1.401899814605713,,,,,
6.503029000000026,-103.72219383086785,58.60426939927923,-159.49756391912229,-0.17438018321990967,0.37602075934410095,1.069077491760254,,,,,
6.512428,-104.47539948216534,56.31424297809319,-157.85271671225422,0,0.5077469348907471,0.6629972457885742,,,,,
6.52178200000003,-105.15906946226806,53.94320406553577,-156.3983937081855,0.23088783025741577,0.6681431531906128,0.10609285533428192,,,,,
6.5309950000000185,-105.70455268193612,51.443291139944115,-155.087920562709,0.7168455719947815,0.8947708606719971,-0.45104843378067017,,,,,
6.540373999999986,-106.26214864795267,48.8424947827154,-153.98818614362048,1.3221571445465088,1.1898250579833984,-0.9768961668014526,,,,,
6.549840000000017,-106.99283619136675,46.27495976572483,-153.25609232631788,2.011230945587158,1.558938980102539,-1.4040019512176514,,,,,
6.559227000000021,-108.00669425511067,44.01515053105136,-153.20178648764906,2.6348941326141357,1.8768459558486938,-1.6418468952178955,,,,,
6.5686019999999985,-109.27766177376824,42.374570992277796,-154.0625021489718,3.0112521648406982,2.092034339904785,-1.8022851943969727,,,,,
6.57798600000001,-110.55903901725478,41.50624511274509,-155.88656778398752,3.012423276901245,2.147129535675049,-1.8663990497589111,,,,,
6.587371000000019,-111.60680547527087,41.38986429312031,-158.58671108033184,2.695164680480957,2.0024216175079346,-1.7957863807678223,,,,,
6.596687000000031,-112.49868653456706,41.8556061919497,-162.1136067660327,2.1637091636657715,1.7251365184783936,-1.5052087306976318,,,,,
6.606059000000016,-113.56459586397506,42.63572979513645,-166.4149609154526,1.5664722919464111,1.5088047981262207,-1.0976645946502686,,,,,
6.615440000000035,-115.06113714330402,43.483132005053015,-171.39037052150107,0.9672786593437195,1.3858503103256226,-0.6161952018737793,,,,,
6.624831000000029,-117.10773791339406,44.183941200744584,-176.92390337286187,0.3263298273086548,1.2063624858856201,0,,,,,
6.634217000000035,-119.65364254310693,44.6303132254225,177.2475245652374,-0.22735249996185303,0.8360960483551025,0.7317601442337036,,,,,
6.643590000000017,-122.50605828161285,44.87634605673024,171.54524152379238,-0.8621191382408142,0.5124545693397522,1.2765352725982666,,,,,
6.652971000000036,-125.17221583022699,44.9881620487634,166.53822183435378,-1.3628894090652466,0.2221270501613617,1.8784797191619873,,,,,
6.662361000000033,-127.27328538288333,45.131115097278034,162.42421217131212,-1.6976029872894287,0,2.508575677871704,,,,,
6.671737000000007,-128.7174937577087,45.400642964943124,159.21973755050723,-1.9927042722702026,-0.076557457447052,2.9509146213531494,,,,,
6.681124000000011,-129.43473734363357,45.77673774958236,156.98647671269052,-2.213078498840332,-0.13525158166885376,3.3168556690216064,,,,,
6.69050900000002,-129.4542258640594,46.33386976168791,155.7021807948597,-2.3729825019836426,-0.2506081461906433,3.7103097438812256,,,,,
6.699892000000034,-128.76563380826408,47.16905395671668,155.42571178250714,-2.46083927154541,-0.39736825227737427,4.091771125793457,,,,,
6.709277999999983,-127.23082278504855,48.289553484716755,156.35089543188857,-2.388881206512451,-0.48893511295318604,4.306809425354004,,,,,
6.718654000000015,-124.66851044094578,49.59084536400078,158.76666683936313,-2.310523271560669,-0.36208832263946533,4.140246391296387,,,,,
6.728037000000029,-120.83666831113862,50.778473242376485,162.97553027467112,-1.9854190349578857,-0.15174061059951782,3.6264193058013916,,,,,
6.737422000000038,-115.8843962080138,51.69862869945371,168.7495800471798,-1.6039962768554688,0.11939039826393127,3.0426619052886963,,,,,
6.746817000000021,-110.25302255330016,52.21241183889941,175.59819536340902,-1.2907860279083252,0.3947770595550537,2.514981985092163,,,,,
6.7561959999999885,-104.5024421324078,52.1956131202967,-176.9704162353172,-0.9896257519721985,0.5997774600982666,2.077929735183716,,,,,
6.7652160000000094,-99.19099741009924,51.642077873482606,-169.35618091134032,-0.7130324244499207,0.8292738795280457,1.6202195882797241,,,,,
6.77494999999999,-94.67633593476253,50.58434265459176,-161.93416030420136,-0.43230974674224854,1.1164332628250122,1.0790073871612549,,,,,
6.784348000000023,-91.05472453810643,49.154725834177945,-154.9411494355499,-0.0923953652381897,1.3576011657714844,0.4797895550727844,,,,,
6.793751999999984,-88.20707790338044,47.55899065064129,-148.5222790738104,0.33830270171165466,1.4345581531524658,-0.10577860474586487,,,,,
6.803132000000005,-85.94265874036698,46.05670604688686,-142.75439137908307,0.6905051469802856,1.4198129177093506,-0.8176968097686768,,,,,
6.812495000000013,-84.03165217700962,44.77205746793262,-137.7116506494581,0.9795222282409668,1.3006923198699951,-1.5358610153198242,,,,,
6.821890999999994,-82.41483444907323,43.646011260016074,-133.49684764891026,1.2523789405822754,1.0383884906768799,-2.0350701808929443,,,,,
6.831272000000013,-81.26795685671495,42.6951898986689,-130.22928991063458,1.444748044013977,0.8020912408828735,-2.352959632873535,,,,,
6.840651000000037,-80.69857584879726,41.964100134173215,-127.98532649065244,1.5848867893218994,0.6325260996818542,-2.498201847076416,,,,,
6.85941200000002,-81.12514819997688,41.266303091466064,-126.35530009719118,1.7392617464065552,0.47156789898872375,-2.4141950607299805,,,,,
6.868796000000032,-81.65182030426678,41.31559319294683,-126.56706314549817,1.7748000621795654,0.4220208525657654,-2.3287134170532227,,,,,
6.878177999999991,-81.90684889376134,41.56980578852427,-127.07980718428547,1.8069179058074951,0.36493542790412903,-2.248131275177002,,,,,
6.88755900000001,-81.57126969951251,41.96249505135358,-127.64073605507731,1.819350004196167,0.36710986495018005,-2.228374481201172,,,,,
6.896949000000006,-80.59305593603811,42.4623429744728,-128.18794186965926,1.8055593967437744,0.4674513638019562,-2.1906700134277344,,,,,
6.9063260000000355,-79.18192000591965,43.11862015188883,-128.86480417699013,1.7266130447387695,0.6147305369377136,-2.0933921337127686,,,,,
6.915713000000039,-77.63766988764891,43.99757946072888,-129.95665274228494,1.5574138164520264,0.6873160600662231,-1.8305329084396362,,,,,
6.925104000000033,-76.41900568464607,45.11230247757884,-131.6274065104619,1.2848212718963623,0.7657736539840698,-1.4042580127716064,,,,,
6.934564000000023,-75.89872347005105,46.41417397641571,-134.0359276913223,0.8883123397827148,0.8602039813995361,-0.7623541355133057,,,,,
6.943870000000004,-76.29919260089915,47.79040841230883,-137.24901433354,0.42129793763160706,0.8684224486351013,0.15953895449638367,,,,,
6.953245000000038,-77.78588758395863,49.08406707123516,-141.16812388601872,0,0.750411868095398,1.2490655183792114,,,,,
6.96262200000001,-80.34547334699188,50.17976094806634,-145.40770061458633,-0.3794727921485901,0.5664055943489075,2.4719302654266357,,,,,
6.972013000000004,-83.40563624909801,51.11571389254087,-149.34386897145762,-0.6809467673301697,0.3290866017341614,3.5854721069335938,,,,,
6.981401000000005,-85.80626979448941,52.03258679857773,-152.07257041554905,-1.0443212985992432,0.10116386413574219,4.364580154418945,,,,,
6.99077299999999,-86.23355674224042,52.90339254253933,-152.7843980213347,-1.3534822463989258,-0.21286046504974365,4.825741291046143,,,,,
7.000347000000033,-84.02913468081148,53.61127714876216,-151.17804431135488,-1.4607714414596558,-0.5050323605537415,4.882217884063721,,,,,
7.009745000000009,-79.3503771523233,53.840720926325126,-147.44172959897563,-1.3781261444091797,-0.6293970346450806,4.5943074226379395,,,,,
7.0191070000000195,-73.07762864802976,53.28576985275164,-142.24905923476211,-1.192826747894287,-0.536555290222168,4.207254409790039,,,,,
7.028503000000001,-66.45959992327516,51.847865433565715,-136.43036647983726,-0.9438289403915405,-0.37305963039398193,3.676795244216919,,,,,
7.037887000000012,-60.50848308847401,49.64460681521828,-130.60016616965154,-0.6882915496826172,-0.18496692180633545,3.1025967597961426,,,,,
7.047270000000026,-55.86214849538642,46.814668682931334,-125.13358998517161,-0.4693823456764221,0,2.4795331954956055,,,,,
7.0566499999999905,-52.675897813794464,43.50577421754054,-120.25171909453972,-0.2902546525001526,0.22321990132331848,1.798445224761963,,,,,
7.0660310000000095,-50.71564067633405,39.84244011806164,-115.88670427233968,-0.15817588567733765,0.48571455478668213,1.1193686723709106,,,,,
7.075402999999994,-49.52551462797866,35.933628067896265,-111.88655836706081,-0.07073092460632324,0.7027972340583801,0.4975118041038513,,,,,
7.084785000000011,-48.61895043745699,31.923904412168554,-108.08426401486177,0,0.8254558444023132,0.027207255363464355,,,,,
7.094006000000036,-47.76898846127324,27.989226494953012,-104.36261909957624,0.08525064587593079,0.869532585144043,-0.3324257433414459,,,,,
7.103387999999995,-46.937904398573195,24.21170592356551,-100.67938406548558,0.15537437796592712,0.8805795907974243,-0.6666483283042908,,,,,
7.112844999999993,-46.1064497993082,20.60475635031153,-97.05214283833988,0.2033241242170334,0.8416717052459717,-0.9778798818588257,,,,,
7.122241000000031,-45.262551558757764,17.19041246604617,-93.49489390108425,0.20234085619449615,0.7149641513824463,-1.2699710130691528,,,,,
7.131628000000035,-44.426721506742474,13.959876542834209,-90.05583427648752,0.16609089076519012,0.5487830638885498,-1.5960967540740967,,,,,
7.140994000000035,-43.64160674543624,10.86379578715001,-86.84465862207439,0.13015931844711304,0.4044974744319916,-1.9338722229003906,,,,,
7.150382000000036,-42.99886512501014,7.838496124472815,-83.97531833416211,0.1610255241394043,0.27276888489723206,-2.2353806495666504,,,,,
7.159759000000008,-42.66740370311973,4.877217555999442,-81.53436022837501,0.21970893442630768,0.19851261377334595,-2.5135927200317383,,,,,
7.1691580000000386,-42.738434960126234,2.046481155030751,-79.39427516761272,0.3233863413333893,0.18143686652183533,-2.7760260105133057,,,,,
7.178542999999991,-43.15533060781402,-0.5386751910065201,-77.67940009689521,0.5037304162979126,0.23157355189323425,-3.0157485008239746,,,,,
7.187913000000037,-43.78626760716545,-2.790432636567703,-76.31208784177336,0.7423648834228516,0.3268589675426483,-3.2603769302368164,,,,,
7.197293999999999,-44.288544924515186,-4.691924254517314,-75.25060841014029,0.9268977046012878,0.4297294616699219,-3.4674601554870605,,,,,
7.206681000000003,-44.29241889463132,-6.285194310214832,-74.26832177641633,1.0146301984786987,0.45866453647613525,-3.569209575653076,,,,,
7.21606300000002,-43.51951098599038,-7.667204672619813,-73.2049012617558,0.9887367486953735,0.47431454062461853,-3.5266077518463135,,,,,
7.225453000000016,-41.88295124186059,-8.96906732126329,-72.2110289501501,0.8793904185295105,0.48035329580307007,-3.318877696990967,,,,,
7.234824000000003,-39.495042265861045,-10.307934921711102,-71.27644184443864,0.7109290361404419,0.5139957070350647,-2.9605915546417236,,,,,
7.244213000000002,-36.660461692860615,-11.74496399024271,-70.65753772463533,0.6377557516098022,0.5962842702865601,-2.590747833251953,,,,,
7.253601000000003,-33.644926962217085,-13.261193240610817,-70.34746843142457,0.6133848428726196,0.6929917335510254,-2.3750596046447754,,,,,
7.26298300000002,-30.610694528408125,-14.758626587645143,-70.3670841243255,0.6546398401260376,0.7359153628349304,-2.274047374725342,,,,,
7.272365000000036,-27.62689625715359,-16.097085580101187,-70.77936270640586,0.7538774013519287,0.8298323750495911,-2.106628656387329,,,,,
7.281770999999992,-24.649819372149892,-17.149137592215318,-71.55185124996554,0.9017152786254883,1.0046253204345703,-1.614617109298706,,,,,
7.291063000000008,-21.766930629751293,-17.857719060419473,-72.60101070376642,1.1373367309570312,1.1771984100341797,-0.7392635345458984,,,,,
7.300620000000038,-19.341663017511145,-18.263366885805098,-73.85271515226334,1.360697627067566,1.3583494424819946,0.3835070729255676,,,,,
7.309986000000038,-17.64911677836135,-18.38867096393024,-75.12361737473914,1.648493766784668,1.3266584873199463,1.6196637153625488,,,,,
7.319378000000029,-16.7875117360308,-18.214558149540085,-76.18546795345446,1.8517026901245117,1.2105796337127686,2.5617339611053467,,,,,
7.32877400000001,-16.694297493565337,-17.924617996254728,-76.84368136517506,1.986809492111206,1.109022617340088,2.8943090438842773,,,,,
7.338154000000031,-17.029356036063763,-17.9065771138368,-76.96438805459566,1.9993093013763428,0.9977439641952515,2.9534146785736084,,,,,
7.347524000000021,-17.423901217073464,-18.355001128818227,-76.53528289106447,1.8693833351135254,0.8258852958679199,2.8359227180480957,,,,,
7.356915000000015,-17.737660894299925,-19.17481465321416,-75.57190759145777,1.624523401260376,0.6620537638664246,2.5395607948303223,,,,,
7.366309999999999,-18.133448469602772,-20.225448316846258,-74.13648977062077,1.3037238121032715,0.5104214549064636,2.0799403190612793,,,,,
7.375688000000025,-18.855530035304138,-21.398866181710932,-72.38148335211328,0.9903164505958557,0.420708566904068,1.4964377880096436,,,,,
7.385071000000039,-20.062342647656788,-22.569397455001607,-70.42480086705466,0.7005325555801392,0.3748434782028198,0.7842543721199036,,,,,
7.394454999999994,-21.730811775023554,-23.621765202468556,-68.36538849588538,0.43500152230262756,0.37118858098983765,0.06878215074539185,,,,,
7.40383300000002,-23.75133448111076,-24.512517185270937,-66.29281765656076,0.1985226571559906,0.35841578245162964,-0.6734735369682312,,,,,
7.413049999999998,-25.91175890212626,-25.250205711767794,-64.2667808280457,0,0.3449709117412567,-1.4603700637817383,,,,,
7.422506999999996,-28.107182291809497,-25.87581119629037,-62.330375294734864,-0.16143539547920227,0.22746975719928741,-2.303016185760498,,,,,
7.431894,-30.238388579013883,-26.436217164101652,-60.5253474614077,-0.4122627377510071,0.08274298906326294,-3.1089186668395996,,,,,
7.441276000000016,-32.06076930448709,-26.872075187208146,-58.988922922603834,-0.6664774417877197,-0.10477936267852783,-3.938706874847412,,,,,
7.45066300000002,-33.25105589576583,-27.050715462379202,-57.98616391411299,-0.7602683901786804,-0.2680729329586029,-4.661965370178223,,,,,
7.459951999999987,-33.59424263791767,-26.87152687499955,-57.73754690181231,-0.731860876083374,-0.3245680034160614,-5.016448497772217,,,,,
7.469425000000001,-33.06256666210615,-26.277989089240826,-58.2400608154591,-0.6918520927429199,-0.24501991271972656,-4.984620094299316,,,,,
7.478799000000038,-31.756179042997584,-25.19078680823393,-59.37694728828078,-0.7567430734634399,-0.09665930271148682,-4.591931343078613,,,,,
7.488178000000005,-29.844628155274222,-23.50327764924344,-61.05867209690191,-0.7867627143859863,0.04839634895324707,-3.9530208110809326,,,,,
7.4975540000000365,-27.56618412339161,-21.23093951300677,-63.189678628204405,-0.841589093208313,0.17955687642097473,-3.338045120239258,,,,,
7.506959999999992,-25.117515833679512,-18.48058420351389,-65.60321193872387,-0.8386563062667847,0.30303552746772766,-2.7536497116088867,,,,,
7.525723000000028,-20.402713862892977,-11.593803375728472,-71.4028867395605,-0.5857605934143066,0.5227965712547302,-1.4454259872436523,,,,,
7.535021000000029,-18.47958272873908,-7.4526429047969405,-74.60860441760644,-0.4110390543937683,0.6083099842071533,-0.8023203611373901,,,,,
7.544601999999998,-16.98929541063373,-3.0410657862518273,-77.89699942154783,-0.31535184383392334,0.6226463913917542,-0.03903639316558838,,,,,
7.5539719999999875,-15.933668461114395,1.5260962984279065,-81.23939572258247,-0.27909964323043823,0.5899198055267334,0.8431410789489746,,,,,
7.563355999999999,-15.404860637543123,6.322127791618291,-84.68002808229365,-0.15730547904968262,0.6136751770973206,1.9263583421707153,,,,,
7.572738000000015,-15.921176878322884,11.26788088178535,-88.24089855499216,0.28762900829315186,0.6408839225769043,2.85744047164917,,,,,
7.582125000000019,-17.796544836711146,15.916821179733267,-91.87525411970101,0.7068544626235962,0.6892008781433105,3.572737216949463,,,,,
7.591492000000017,-21.08087981844314,19.944089765952047,-95.2599256756523,1.081644058227539,0.7426666021347046,3.840627431869507,,,,,
7.600889999999993,-25.49450616305391,23.38620930175799,-98.19685334880792,1.3946442604064941,0.7786343097686768,3.631600856781006,,,,,
7.610275999999999,-30.55150338950108,26.379876509443207,-100.67698406211342,1.5376859903335571,0.730370044708252,3.176668643951416,,,,,
7.619675000000029,-35.77362189137981,28.976518025917386,-102.7611202338911,1.4775326251983643,0.6063220500946045,2.595456838607788,,,,,
7.628850999999997,-40.73710750288989,31.186441000357092,-104.46454097485805,1.3496222496032715,0.45751050114631653,2.0372536182403564,,,,,
7.638241999999991,-45.10509358931335,32.9432636252612,-105.77228458643148,1.2104179859161377,0.3173149824142456,1.4743611812591553,,,,,
7.647632999999985,-48.54423099453329,34.20237475105116,-106.68378632842253,1.0252314805984497,0.2558048963546753,0.9935601353645325,,,,,
7.657186000000024,-51.012510100471324,35.024824796996064,-107.3008318751527,0.9169971942901611,0.19634470343589783,0.6694091558456421,,,,,
7.666596000000027,-52.75605265358076,35.4999025042525,-107.7859597960558,0.8849714994430542,0.20083889365196228,0.442299485206604,,,,,
7.67580300000003,-54.12981883044063,35.67284221717642,-108.24252302498319,0.9218301773071289,0.2678937315940857,0.21208009123802185,,,,,
7.685162999999989,-55.46082686154936,35.623039446079595,-108.69717235363521,1.0323878526687622,0.3784981071949005,-0.05314362049102783,,,,,
7.694551999999987,-56.92550140093028,35.48153369808707,-109.15456005738349,1.1479865312576294,0.5098468065261841,-0.4212055504322052,,,,,
7.704029999999989,-58.55735826626911,35.354789503994496,-109.67863508837564,1.298683762550354,0.633118748664856,-0.8919702172279358,,,,,
7.713411000000008,-60.26561417781745,35.33158577551253,-110.38569432920109,1.4550014734268188,0.6942516565322876,-1.3267024755477905,,,,,
7.722782999999993,-62.028473763865044,35.48706771941628,-111.44542575601653,1.5650612115859985,0.6886271238327026,-1.6821808815002441,,,,,
7.732158000000027,-63.97708189512014,35.87482665150099,-113.09355384321408,1.6105743646621704,0.6293299198150635,-1.9641915559768677,,,,,
7.74156099999999,-66.38366907650975,36.50693988450274,-115.58031308888623,1.720982313156128,0.6583865880966187,-1.9704649448394775,,,,,
7.750920000000008,-69.6382534768757,37.44444819684406,-119.08993017192303,1.8484899997711182,0.7760529518127441,-1.7841660976409912,,,,,
7.760313999999994,-73.84371841863751,38.78015689876119,-123.64169037774643,1.8853759765625,0.9568986892700195,-1.597465991973877,,,,,
7.769700999999998,-78.75135531298046,40.50775085394524,-129.07694693011715,1.8507649898529053,1.118299126625061,-1.465909481048584,,,,,
7.779083000000014,-83.85729380353973,42.59321873153851,-135.01498080340707,1.6523029804229736,1.2572808265686035,-1.4324833154678345,,,,,
7.788450000000012,-88.64790195896578,45.04162137801618,-141.25611514288897,1.2541825771331787,1.3852019309997559,-1.2666816711425781,,,,,
7.797783000000038,-92.99302529475153,47.81789365548307,-147.85476145183583,0.7471168041229248,1.3657262325286865,-0.8748113512992859,,,,,
7.807164,-97.07149342425137,50.76722133432757,-154.9516590812323,0.08089345693588257,1.2527859210968018,-0.3103387951850891,,,,,
7.816705000000013,-101.23600986082265,53.56892542623109,-162.66964616545525,-0.7001733183860779,0.9226045608520508,0.4419437348842621,,,,,
7.826100999999994,-105.76504640659213,55.822582822888975,-171.05739673357124,-1.4026110172271729,0.3063812851905823,1.4670556783676147,,,,,
7.835477000000026,-110.53814379706243,57.12772154017663,-179.63100287543688,-1.6894185543060303,-0.4155200719833374,2.623589277267456,,,,,
7.844675999999993,-114.98587195507139,57.384677066430505,172.9961664113066,-1.760436773300171,-0.7407248020172119,3.396253824234009,,,,,
7.854073000000028,-118.48137348498037,56.973167990111094,167.97102302862436,-1.895357608795166,-0.5376852750778198,3.73154354095459,,,,,
7.86345,-120.85041195024253,56.27339194957918,165.499388532913,-1.6346527338027954,-0.17115452885627747,3.7570858001708984,,,,,
7.872830000000022,-122.31341300928385,55.68364922759698,164.825468192634,-1.355907678604126,0.07799869775772095,3.5985310077667236,,,,,
7.882226000000003,-123.02920727038911,55.50168302143987,165.21130776040337,-1.2037384510040283,0.2049817442893982,3.3343160152435303,,,,,
7.891594999999995,-122.75001967881222,55.75202428707053,166.4520727429069,-1.0192475318908691,0.209547221660614,3.0877556800842285,,,,,
7.900991000000033,-121.26641688330733,56.30775420996447,168.589910319064,-0.7795878648757935,0.15403130650520325,2.885296106338501,,,,,
7.910359000000028,-118.62400839627627,56.987988835569716,171.7460085090172,-0.5280846953392029,0.1390635371208191,2.634387493133545,,,,,
7.919748000000027,-115.08060960857694,57.64878017351578,175.92075241333907,-0.2751731276512146,0.1881881058216095,2.290825366973877,,,,,
7.9291410000000155,-111.0334825863023,58.15217367502419,-179.08257133217526,0,0.27021750807762146,1.8493194580078125,,,,,
7.938518999999985,-107.02035715910199,58.375762695980264,-173.66986700465827,0.22930818796157837,0.3654665946960449,1.1480278968811035,,,,,
7.948082999999997,-103.49421973374768,58.24989430791362,-168.45308785688422,0.5692662596702576,0.5238829851150513,0.2667531669139862,,,,,
7.95729,-100.87631226042988,57.782481071085684,-164.086256491171,1.0573372840881348,0.7390047907829285,-0.6160285472869873,,,,,
7.966688000000033,-99.71731782423038,57.04244424897906,-161.26784770079652,1.5932807922363281,0.8731709718704224,-1.2513939142227173,,,,,
7.9760650000000055,-100.69699082156306,56.13044625097773,-160.71736347529355,1.9919955730438232,0.8133302927017212,-1.5721012353897095,,,,,
7.985447000000022,-104.08233452223085,55.17628289906715,-162.74889386305406,2.3010201454162598,0.7373745441436768,-1.5851551294326782,,,,,
7.994823999999994,-109.49229895987122,54.1784661063238,-167.0065358744343,2.525190830230713,0.7742417454719543,-1.6447116136550903,,,,,
8.004207000000008,-115.92979072920755,53.123216667476136,-172.68619259009085,2.513542890548706,0.9378876686096191,-1.7476670742034912,,,,,
8.013590000000022,-122.41188367190951,52.060681326352864,-179.20659414090662,2.2875571250915527,1.1563701629638672,-1.7446951866149902,,,,,
8.02296899999999,-128.36754107087785,51.01057419255128,173.72062365289872,1.923576831817627,1.278734803199768,-1.53804349899292,,,,,
8.03234900000001,-133.73846893114236,49.921162060505324,166.08615281088038,1.4500699043273926,1.3247852325439453,-1.1513614654541016,,,,,
8.041736000000014,-138.7324057538843,48.659862129856016,157.99480135145458,0.8657282590866089,1.3753089904785156,-0.8269792795181274,,,,,
8.051117000000033,-143.47858921962575,47.0345298896304,149.6377052197434,0.25133106112480164,1.331099271774292,-0.44755375385284424,,,,,
8.060688000000027,-148.06290750882147,44.86427072984609,141.30563767136354,-0.46723175048828125,1.1884291172027588,0.029798388481140137,,,,,
8.070065999999997,-152.3265929420548,42.0437806514394,133.47717809848663,-1.1344352960586548,0.8568115234375,0.7177059054374695,,,,,
8.079273999999998,-156.17392104190816,38.58065075676873,126.64315196807246,-1.6189862489700317,0.2679635286331177,1.3168118000030518,,,,,
8.088667999999984,-159.63365751708514,34.73503349293599,121.15217707943931,-1.9397556781768799,-0.13270309567451477,1.484609603881836,,,,,
8.098037000000033,-162.63018205941117,30.94755607458058,117.03445045636659,-2.294184923171997,-0.1187475323677063,1.4468274116516113,,,,,
8.10741999999999,-165.06309731524232,27.469172664273817,114.06456143447588,-2.598242998123169,0.03959454596042633,1.434826374053955,,,,,
8.116809999999987,-167.0276250953301,24.312311476503194,111.77414996281922,-2.812016248703003,0.285824179649353,1.335064172744751,,,,,
8.126187000000016,-168.5404159652979,21.49578356091579,109.88824797879903,-2.899749755859375,0.4100688099861145,1.2029879093170166,,,,,
8.135564999999986,-169.6077221968797,19.13414826145301,108.09548331797549,-2.934253692626953,0.3097441792488098,1.2759796380996704,,,,,
8.144950999999992,-170.35496738075707,17.329812257890886,106.30982304946284,-2.977095127105713,0.09210548549890518,1.404223918914795,,,,,
8.154336,-170.83215182836227,16.06647072408636,104.6580890543446,-3.045550584793091,-0.20777249336242676,1.4403259754180908,,,,,
8.163720000000012,-171.06522037005314,15.255747634870009,103.33934227697297,-3.085526943206787,-0.5038394927978516,1.4212901592254639,,,,,
8.173106000000018,-171.06999458073793,14.791416463447131,102.55269718721578,-3.0230820178985596,-0.7087968587875366,1.342613935470581,,,,,
8.182489000000032,-170.87470079111708,14.565672803213621,102.42087212178927,-2.896841287612915,-0.7898077964782715,1.2576825618743896,,,,,
8.191872999999987,-170.56336332763485,14.460214132849885,102.97868348478339,-2.740023374557495,-0.7745378017425537,1.1887253522872925,,,,,
8.201261999999986,-170.21916375244516,14.388424562307584,104.21760396840095,-2.562384843826294,-0.6926213502883911,1.1887940168380737,,,,,
8.210635000000025,-169.93553129855258,14.335478508021794,106.0888411821932,-2.410292148590088,-0.5431659817695618,1.1920974254608154,,,,,
8.220024000000024,-169.72299856454893,14.313922934316318,108.4978416825371,-2.2303404808044434,-0.3153759241104126,1.1300663948059082,,,,,
8.229422999999997,-169.45788691604204,14.37282864614612,111.31214465082934,-1.9641165733337402,0,0.9930979609489441,,,,,
8.238790999999992,-168.9742359798761,14.550198078522932,114.3974780128854,-1.6126868724822998,0.27539584040641785,0.8968691825866699,,,,,
8.248177999999996,-168.1879007322053,14.882337567676457,117.62099077302128,-1.2186321020126343,0.46696728467941284,0.9037777781486511,,,,,
8.257587000000001,-167.1508329842003,15.377343270168526,120.87811261484343,-0.796224057674408,0.6038470268249512,0.9417635798454285,,,,,
8.266953,-165.9830616289339,16.021009936364997,124.10714025933123,-0.3347410559654236,0.759352445602417,0.9235132336616516,,,,,
8.276331000000027,-164.8143447484069,16.73013315344672,127.2352677837038,0.21344530582427979,0.9479665756225586,0.7839313745498657,,,,,
8.285742000000027,-163.77456130554071,17.36705674078254,130.09063677884959,0.8775051832199097,1.0943262577056885,0.5567415952682495,,,,,
