timestamp,Roll,Pitch,Yaw,Acc X,Acc Y,Acc Z,Gyro X,Gyro Y,Gyro Z,Acc Magnitude,Gyro Magnitude
0.0,-5.163021970739462,-0.5910234240526333,159.63778490249987,0,0,0,,,,,
0.009406000000012682,-5.203094610955719,-0.5924461474579278,159.62840972297383,0,0,0,,,,,
0.018786000000034164,-5.236946400354179,-0.6163750493632709,159.62106859741377,0,0,0,,,,,
0.0281540000000291,-5.2594743295418835,-0.616692184529995,159.62516349908606,0,0,0,,,,,
0.03755400000000009,-5.256402285262604,-0.6341200708489841,159.62701671061154,0,0,0,,,,,
0.046939000000008946,-5.2381562296506665,-0.6397444421390949,159.62473140886516,0,0,0.030013978481292725,,,,,
0.056331999999997606,-5.233107634588648,-0.6572295156607562,159.60978824371145,0,0,0,,,,,
0.06569799999999759,-5.230485051053636,-0.6738454879748623,159.59017273090743,0,0,0.032692551612854004,,,,,
0.0750990000000229,-5.255325906848298,-0.6860126872668113,159.576644875972,0,0,0,,,,,
0.08448100000003933,-5.268407234871242,-0.7046073289837297,159.5734051913192,0,0,0,,,,,
0.09349400000002106,-5.276379750444395,-0.7254894056104668,159.58187013660208,0,0,0.028628885746002197,,,,,
0.10324800000000778,-5.278769442483324,-0.7162224883355639,159.59184681810845,0,0,0,,,,,
0.11263900000000149,-5.274443217627011,-0.7000509070767142,159.59755335180768,0,0,0.02740025520324707,,,,,
0.12200999999998885,-5.272685957798477,-0.6820056455737475,159.59186499691862,0,0,0.03129768371582031,,,,,
0.13140200000003688,-5.279091896253892,-0.6745673600659174,159.577275772015,0,0.02636236697435379,0.03716236352920532,,,,,
0.14078000000000657,-5.304329153077415,-0.6597617081625574,159.5447081004343,0,0.025581203401088715,0.039640069007873535,,,,,
0.15017299999999523,-5.354780125432837,-0.6278923612381622,159.49668778438146,0,0,0.030931532382965088,,,,,
0.15955800000000409,-5.41970502576589,-0.5735426072770514,159.44386133228474,0,0,0.02761209011077881,,,,,
0.16893900000002304,-5.487602252360882,-0.5188775893664644,159.38728559137496,0,0,0,,,,,
0.17831599999999526,-5.548792307749956,-0.49812364528654224,159.32936728290812,0,0,0,,,,,
0.18770800000004328,-5.605775319133504,-0.4985822302306315,159.28833450092546,0,-0.025299102067947388,0,,,,,
0.19709700000004204,-5.646357649245348,-0.49912707912637205,159.26901142924444,0,-0.0292302668094635,0,,,,,
0.20646900000002688,-5.674600826820591,-0.4943536079475896,159.27031153573657,0,-0.02727571874856949,0,,,,,
0.21584799999999404,-5.690968557712654,-0.49566273484085105,159.2839898632932,0,0,0,,,,,
0.22524100000003955,-5.70767004162556,-0.4940238173425261,159.3024509913663,0,-0.02523741126060486,0,,,,,
0.23462699999998904,-5.728668896933182,-0.4922115849718483,159.31637701661876,0,0,0,,,,,
0.24402800000001434,-5.7462498632213155,-0.4925758945409475,159.3269677616281,0,0,0,,,,,
0.2534050000000434,-5.7501686103241445,-0.493177864236683,159.34031611456948,0,0,0,,,,,
0.2627820000000156,-5.745855762274186,-0.49080961917769705,159.34959191495705,0,0,0,,,,,
0.27216400000003205,-5.736334830677249,-0.4875699018498179,159.3467118025526,0,0,0,,,,,
0.28156699999999546,-5.724999858912012,-0.48125275737495593,159.33703667646427,0,0,0,,,,,
0.29094700000001694,-5.708746678080376,-0.4756599965222181,159.32081189835156,0,0,0,,,,,
0.3003280000000359,-5.702496342731104,-0.4784054557581288,159.30422357837756,0,0,0.02734309434890747,,,,,
0.3097150000000397,-5.70599034741822,-0.4834127913654895,159.2963055703133,0,0,0.03003394603729248,,,,,
0.3190960000000018,-5.726211533650549,-0.4876023278900816,159.2991032829094,0,0,0.02909374237060547,,,,,
0.32848200000000816,-5.76372303145925,-0.4917126546008063,159.31048782857664,0,0,0.026231825351715088,,,,,
0.33787300000000187,-5.809011742625715,-0.4953118854440583,159.32859703007483,0,0,0.02582406997680664,,,,,
0.3472380000000044,-5.857376627555785,-0.4945531002796793,159.34592391411923,0,0,0,,,,,
0.35662999999999556,-5.887899405143987,-0.48916804296147764,159.35427106600363,0,0,0,,,,,
0.36601799999999685,-5.876878004059535,-0.4792286085451318,159.36148271978382,0,0,0,,,,,
0.37540599999999813,-5.816981460544636,-0.4565320613672288,159.3646463847608,0,0,0,,,,,
0.38478400000002466,-5.708517802074274,-0.4262673867043138,159.34054472501197,0,0.02845820039510727,0,,,,,
0.3941639999999893,-5.5767957811240105,-0.39398744121732526,159.28644303359113,0,0,0,,,,,
0.40354999999999563,-5.40396321623905,-0.3597978876036569,159.23441393622653,0,0.029512763023376465,0.031215906143188477,,,,,
0.41293600000000197,-5.181409580338074,-0.2917186217942397,159.19603382681984,0,0.04321383684873581,0.04305082559585571,,,,,
0.4223190000000159,-4.9163543601069835,-0.18779264067374463,159.1591140401273,0,0.05153853818774223,0.05776417255401611,,,,,
0.43166000000002214,-4.627870939708738,-0.03765498739496612,159.15831379072245,-0.07336918264627457,0.10849758982658386,0.11248427629470825,,,,,
0.44101700000004485,-4.25726626098984,0.25451669800380194,159.16315794680582,-0.15220597386360168,0.14182022213935852,0.17055290937423706,,,,,
0.45038099999999304,-3.823202592400878,0.7110627968146825,159.05505106119395,-0.17351827025413513,0.15865901112556458,0.3589421510696411,,,,,
0.45976699999999937,-3.4655943927348045,1.3004019402205294,158.80145810713242,-0.2054462730884552,0.20170795917510986,0.5268415808677673,,,,,
0.4690689999999904,-3.3424588058640055,1.9338088067471686,158.36603391550625,-0.1985439956188202,0.22174905240535736,0.6058375239372253,,,,,
0.47854599999999436,-3.5912029226741944,2.520685685795755,157.84498210940748,-0.15048910677433014,0.23923097550868988,0.638461172580719,,,,,
0.4879280000000108,-4.297697894563723,2.967297550183667,157.36719193340357,-0.044371433556079865,0.20415616035461426,0.5240246057510376,,,,,
0.5066869999999994,-6.878928794141566,2.899668320102283,156.84587776774433,0.12646979093551636,0.16670718789100647,0.25896912813186646,,,,,
0.5160960000000046,-8.54037255441007,2.1890149148668234,156.9625503168153,0.15019117295742035,0.2513619065284729,0.09858560562133789,,,,,
0.5254600000000096,-10.148850239214699,1.0525600606690497,157.36052166286075,0.11718910932540894,0.2596196234226227,0,,,,,
0.5348630000000298,-11.530572560528842,-0.37989151912127633,157.95549323102676,0,0.19475708901882172,0.03085029125213623,,,,,
0.5442360000000122,-12.676238684337548,-1.9008421076848425,158.71251474474408,-0.036340970546007156,0.14172309637069702,0,,,,,
0.5536370000000375,-13.502865426663028,-3.314040650998092,159.53545462883193,0,0.08742944896221161,0,,,,,
0.5630280000000312,-13.949898498278756,-4.473502523792532,160.45440103780592,0.03473205864429474,0,0,,,,,
0.5724069999999983,-13.94512128227385,-5.274576414832113,161.44613122044913,0.09863773733377457,-0.18020232021808624,0,,,,,
0.5817910000000097,-13.376424721966318,-5.762992805810865,162.5963200950356,0.17116102576255798,-0.4845036268234253,-0.15226376056671143,,,,,
0.5911629999999946,-12.112918364858476,-6.087518066363069,163.77260215465438,0.2753274440765381,-0.9657217264175415,-0.29780805110931396,,,,,
0.600543000000016,-10.09892428140286,-6.420085021389327,164.85231208501236,0.39375370740890503,-1.4542120695114136,-0.34344565868377686,,,,,
0.6099330000000123,-7.494849813284543,-6.935477947173541,165.56842844241325,0.5158476829528809,-2.0674967765808105,-0.10067868232727051,,,,,
0.6191230000000019,-5.0724067636187,-7.754449646690176,165.7785854728777,0.5509597063064575,-2.410224199295044,-0.12663179636001587,,,,,
0.6285110000000032,-3.1370506429682052,-8.819663077429198,165.348405038101,0.27416712045669556,-1.9672200679779053,-0.04607576131820679,,,,,
0.6380819999999972,-1.9755791712320152,-9.834262661293227,164.3694836259191,0.053197816014289856,-1.4881058931350708,-0.0704532265663147,,,,,
0.6474729999999909,-1.4413420684952374,-10.532919103202117,162.96297036264863,-0.20280352234840393,-0.9010069966316223,0,,,,,
0.65689500000002,-1.4695858487367495,-10.827658184299649,161.25258261632823,-0.39305442571640015,-0.40620294213294983,-0.04613465070724487,,,,,
0.6662660000000074,-1.9182083361341824,-10.702818131754041,159.4199956937901,-0.4868059754371643,0,-0.05680602788925171,,,,,
0.6756579999999985,-2.6532574183356252,-10.250640397427862,157.59184710395783,-0.47514182329177856,0.45815545320510864,-0.058712780475616455,,,,,
0.6850360000000251,-3.483959197066343,-9.6190661929488,155.8086927131053,-0.4740443825721741,0.837053120136261,-0.23796725273132324,,,,,
0.6942319999999995,-4.123258733449236,-9.017353996624767,154.1745110451679,-0.5246813893318176,1.2068318128585815,-0.3243333697319031,,,,,
0.7036150000000134,-4.420966944989413,-8.599050700057592,152.81284198148518,-0.5116109251976013,1.4113833904266357,-0.23063766956329346,,,,,
0.7129899999999907,-4.369151657270285,-8.353597909305046,151.84266247554623,-0.5325058698654175,1.4913039207458496,0.052924156188964844,,,,,
0.7225670000000264,-4.115968875085111,-8.187266953571532,151.21285532938663,-0.595513105392456,1.479166030883789,0.3235122561454773,,,,,
0.7319390000000112,-3.927226284133189,-8.021802431592997,150.85605968601763,-0.6499941349029541,1.441293478012085,0.4580534100532532,,,,,
0.7413270000000125,-4.020448673621027,-7.869909874314614,150.74607185707197,-0.6754286885261536,1.4173061847686768,0.4670714735984802,,,,,
0.7507120000000214,-4.456850153984539,-7.793246543750967,150.8289809785562,-0.6533631086349487,1.4077645540237427,0.4576874375343323,,,,,
0.7601160000000391,-5.227662552447759,-7.84200985351827,151.15536297834163,-0.6307823061943054,1.375162959098816,0.4201316833496094,,,,,
0.7694830000000366,-6.262282835418387,-8.042124492840385,151.75166985152714,-0.5712893605232239,1.2960402965545654,0.3606700897216797,,,,,
0.7788690000000429,-7.4693707315919395,-8.389257252887871,152.58438907364103,-0.5272656083106995,1.1514497995376587,0.2966778874397278,,,,,
0.788250000000005,-8.759792775887933,-8.879376657879945,153.65057179990959,-0.45959460735321045,0.9727432131767273,0.16762381792068481,,,,,
0.7976639999999975,-10.021221342182294,-9.48545938020027,154.9668049105814,-0.36438485980033875,0.7540572285652161,0,,,,,
0.8070150000000353,-11.105902073728323,-10.159445929090115,156.54282341629752,-0.24933935701847076,0.4838619530200958,-0.1936289668083191,,,,,
0.8163160000000289,-11.840796125428978,-10.849270138891075,158.30985999313108,-0.05036093294620514,0.08098414540290833,-0.4029577374458313,,,,,
0.8257980000000202,-12.104527515858477,-11.4987678288923,160.24455438206286,0.20667444169521332,-0.4813781976699829,-0.5699402689933777,,,,,
0.8349939999999947,-11.933019306414756,-12.062321795748034,162.34839973886184,0.5015580654144287,-1.2874222993850708,-0.6476422548294067,,,,,
0.8443910000000301,-11.615456928424004,-12.567770485356192,164.49080059128633,0.5944435596466064,-1.960935115814209,-0.7747613787651062,,,,,
0.8537660000000074,-11.204373929511515,-13.037358885673594,166.2184568954051,0.7721357345581055,-2.4966561794281006,-0.6445571780204773,,,,,
0.8631420000000389,-10.878420985670532,-13.281458871100401,167.47344311561884,0.6994233131408691,-2.7035787105560303,-0.6458861827850342,,,,,
0.872526999999991,-10.49923758752724,-13.193656196048005,167.94581760964127,0.5332869291305542,-2.600287914276123,-0.6972017288208008,,,,,
0.8819210000000339,-9.960148267251617,-12.860893160614685,167.4778530533817,0.5784731507301331,-2.4468159675598145,-0.7720978856086731,,,,,
0.8913000000000011,-9.242215721883298,-12.39115330518482,166.44167224937198,0.5208371877670288,-2.0998928546905518,-0.7519919276237488,,,,,
0.9006929999999898,-8.32120851890507,-11.892312389996519,164.99553367430087,0.25021255016326904,-1.559799313545227,-0.5619766712188721,,,,,
0.9102579999999989,-7.2207091645079515,-11.363661358349281,163.24387487903127,-0.0884503647685051,-0.9642833471298218,-0.37994664907455444,,,,,
0.9290230000000292,-4.680992208657202,-9.979933363069906,158.97563746389756,-0.6703266501426697,0.33388692140579224,0.045411527156829834,,,,,
0.9384110000000305,-3.436502209453115,-9.071275717764898,156.76529887183545,-0.7681468725204468,0.8592670559883118,0.29454994201660156,,,,,
0.947778000000028,-2.398471626807482,-8.061714893161051,154.90568661539012,-0.9237199425697327,1.4102743864059448,0.5494132041931152,,,,,
0.9571789999999964,-1.683552368713851,-7.034619962405775,153.3765418978041,-1.0496658086776733,1.8911213874816895,0.7484075427055359,,,,,
0.9665540000000306,-1.3687819199029492,-6.084016965713763,152.19806283267062,-1.1232198476791382,2.2370762825012207,0.8978918790817261,,,,,
0.9759470000000192,-1.5119371355137388,-5.284449214040356,151.47564172863025,-1.206933856010437,2.4877443313598633,0.9390285611152649,,,,,
0.985164999999995,-2.0802454765581477,-4.700460496778354,151.21823288454624,-1.2175203561782837,2.628920078277588,0.8696437478065491,,,,,
0.9945380000000341,-2.931681933045298,-4.439475646349987,151.41012970149288,-1.1697919368743896,2.617626190185547,0.7423169016838074,,,,,
1.0039130000000114,-3.928514247221718,-4.600513689897726,152.14556542486199,-1.1926017999649048,2.5026772022247314,0.6459755897521973,,,,,
1.0133069999999975,-4.992947493609533,-5.181341259498119,153.40054435273052,-1.1392619609832764,2.205327033996582,0.6102128028869629,,,,,
1.0228759999999966,-6.157344190817514,-6.113359674901876,155.12050459057585,-0.9946531057357788,1.773410439491272,0.5071423649787903,,,,,
1.0322570000000155,-7.494376506884916,-7.307064061843299,157.30647384987665,-0.7423075437545776,1.183934211730957,0.25172120332717896,,,,,
1.0416510000000017,-8.972551003363424,-8.697891565320182,159.9439258814597,-0.37423646450042725,0.3937716484069824,-0.1646166443824768,,,,,
1.0510320000000206,-10.4355679529508,-10.2503343897464,162.93551250052155,0,-0.4971577227115631,-0.6837486028671265,,,,,
1.0602390000000241,-11.632319530007162,-11.81939519954743,166.2518075893459,0.4063979685306549,-1.4262254238128662,-1.149261474609375,,,,,
1.0696310000000153,-12.320444037055639,-13.142807060948913,169.62355995931836,0.7417950630187988,-2.3595833778381348,-1.3935096263885498,,,,,
1.0789980000000128,-12.34095683535942,-14.091037119695908,172.38003503340576,0.8530790209770203,-3.013751268386841,-1.506993293762207,,,,,
1.0883929999999964,-11.754176227396485,-14.559038215450332,174.12784912949988,0.8939651846885681,-3.387193202972412,-1.3179879188537598,,,,,
1.0977720000000204,-10.948136527328169,-14.49764067927442,174.69685233640945,0.9211103916168213,-3.408299446105957,-1.0381356477737427,,,,,
1.1071469999999977,-10.247583932413487,-13.95142343740177,174.16742306658355,0.9237631559371948,-3.167466402053833,-0.8108175992965698,,,,,
1.1165320000000065,-9.805556519288167,-13.150778942141866,172.87177333202303,0.8609755039215088,-2.6621253490448,-0.6179513931274414,,,,,
1.1259300000000394,-9.595304861223884,-12.34430083449372,171.14585912597315,0.6897518634796143,-2.0753817558288574,-0.5574436187744141,,,,,
1.135311999999999,-9.29902741147121,-11.64714685383718,169.20527505919836,0.4181254506111145,-1.5021641254425049,-0.4956202805042267,,,,,
1.1448619999999892,-8.647729700975102,-10.994996501652553,167.1151039913031,0.15063776075839996,-1.0304367542266846,-0.37561357021331787,,,,,
1.1542650000000094,-7.627132817937554,-10.251341144796521,164.96606746592252,-0.06303785741329193,-0.6170123815536499,-0.1935558319091797,,,,,
1.1636560000000031,-6.355575098747386,-9.356992879891369,162.9429661557831,-0.22577708959579468,-0.25946134328842163,0,,,,,
1.1730330000000322,-5.024119942639774,-8.371607383440047,161.0837405457384,-0.41667288541793823,0.0585797019302845,0.2451918125152588,,,,,
1.1824110000000019,-3.8402797449058452,-7.420274610505345,159.28798600955457,-0.6015270948410034,0.4075247049331665,0.43775641918182373,,,,,
1.1917950000000133,-2.9221707066698412,-6.6304054240848265,157.52956777567982,-0.6913012266159058,0.7206610441207886,0.5773874521255493,,,,,
1.201184000000012,-2.3351303062144253,-6.106004301732738,155.8130569617075,-0.7397894263267517,0.9811322093009949,0.6810705065727234,,,,,
1.2105710000000158,-2.15825778992735,-5.902780878165399,154.21394881769186,-0.8119021058082581,1.239159107208252,0.7013194561004639,,,,,
1.2199520000000348,-2.376279411759944,-5.999931076757145,152.76677208171412,-0.8697084784507751,1.5015738010406494,0.637228786945343,,,,,
1.2293300000000045,-2.8786042565731016,-6.321467437326496,151.53344275589757,-0.8518638610839844,1.6737332344055176,0.5191579461097717,,,,,
1.2387140000000159,-3.5252134678609957,-6.773483453556157,150.60000764516568,-0.7518532872200012,1.7251369953155518,0.44943422079086304,,,,,
1.2481089999999995,-4.162152963256579,-7.29507111525377,150.05333192555753,-0.5071279406547546,1.6240739822387695,0.3319700360298157,,,,,
1.2668720000000349,-4.755520130122191,-8.518192491304216,150.52250355624744,-0.029535524547100067,0.8737675547599792,0.12390279769897461,,,,,
1.2762779999999907,-4.656363906948655,-9.260020825741172,151.40337672578704,0.23168505728244781,0.2345714569091797,-0.057975590229034424,,,,,
1.285665999999992,-4.381876473987353,-10.126667794292192,152.4643662163297,0.3795236349105835,-0.48696452379226685,-0.2573530077934265,,,,,
1.2950270000000046,-4.103863663979207,-11.050750762046126,153.44849801105553,0.4600505828857422,-1.1607439517974854,-0.43018639087677,,,,,
1.3042159999999967,-3.9515066766541165,-11.872083006188737,154.14595308522524,0.5536060333251953,-1.698879599571228,-0.642004132270813,,,,,
1.3136220000000094,-3.840233345380824,-12.39355575726751,154.32854654058116,0.5329961180686951,-1.9973636865615845,-0.7580768465995789,,,,,
1.3229939999999942,-3.6308132517301868,-12.435549240802764,153.84759708141425,0.4583483934402466,-2.0385122299194336,-0.7420481443405151,,,,,
1.3323880000000372,-3.2112609652123183,-11.938381785289696,152.80581838815027,0.3924097418785095,-1.8161872625350952,-0.6645156145095825,,,,,
1.3417699999999968,-2.5030906902269163,-11.025456629614856,151.35673570058162,0.2730918526649475,-1.4167418479919434,-0.5101748704910278,,,,,
1.3513320000000135,-1.4544881535911853,-9.987591109042148,149.8040806031519,-0.0758303552865982,-0.9807703495025635,-0.1307728886604309,,,,,
1.3607370000000287,-0.2327408378468302,-9.021411597740162,148.35253038898057,-0.20486745238304138,-0.08797626942396164,0.14356166124343872,,,,,
1.3701200000000426,0.9206227365899597,-8.286153288870418,146.57874428318084,-0.2846572697162628,-0.21549105644226074,0.06708651781082153,,,,,
1.379489000000035,1.846316794140859,-7.667788131281475,146.07131388842868,-0.9149575233459473,1.2678581476211548,0.3865916132926941,,,,,
1.3886899999999969,2.1557937149763204,-7.056483841119209,147.62495883092237,-1.5092525482177734,2.3384971618652344,0.24608832597732544,,,,,
1.3982599999999934,3.5784480618440546,-6.135679436955794,149.81959852056426,0.03903154283761978,1.2860440015792847,0.7905745506286621,,,,,
1.4076469999999972,5.330484109334223,-5.38410079892952,150.90070806070008,-0.37247759103775024,0.8630159497261047,-0.38787102699279785,,,,,
1.4170349999999985,7.294282978512738,-4.509053597744247,151.49322143215045,-0.5375785231590271,0.9499585628509521,-0.09311366081237793,,,,,
1.426417000000015,8.772557172637562,-3.506552764160324,151.56402020024373,-0.6811650991439819,0.5182889699935913,-0.1256200671195984,,,,,
1.445178999999996,9.997816061405945,-1.3814720960976843,149.9968808424902,0.2711317241191864,-0.26139572262763977,-0.19470101594924927,,,,,
1.4639520000000061,8.237347920313399,0.48998792364015076,150.2716016610831,-0.05635242164134979,-0.03444112837314606,-0.20152753591537476,,,,,
1.4733580000000188,6.928148534966648,1.129577175968375,149.55375145194256,0,-0.6988779306411743,-0.18462175130844116,,,,,
1.4827210000000264,5.7424453068375065,1.3955620119582517,148.60454104463952,0.1544061005115509,-0.5438605546951294,-0.27732694149017334,,,,,
1.4921620000000075,4.997955482113792,1.4701401866693935,147.92446194729834,0.15521928668022156,-0.2654532194137573,0.06552982330322266,,,,,
1.5014760000000251,4.421240849393766,1.6894158119265288,147.69994932246854,0.32667282223701477,0,0.41543686389923096,,,,,
1.5108539999999948,3.465298791209091,2.096031526206031,147.88936580703637,0.2886255383491516,0.08038602769374847,0.6031360030174255,,,,,
1.5202540000000226,1.9801427128735465,2.5257308504072893,148.18043896866303,0.22023487091064453,-0.032566651701927185,0.4245758056640625,,,,,
1.529640000000029,0.33809761304030655,2.6892548418848046,148.48147201184662,0.7691578269004822,-0.24379421770572662,0.44755059480667114,,,,,
1.5390310000000227,-1.3172476995854827,2.7743119596988643,149.10931315751077,0.4771086573600769,0.07834872603416443,0.8331438302993774,,,,,
1.5484110000000442,-3.1948131353234372,2.971489276779357,149.45465689278416,0.319749653339386,0.3357667028903961,0.523504376411438,,,,,
1.5577930000000038,-4.293362065910961,3.401470347637033,148.48253823672425,0.45387840270996094,0.726209282875061,1.4169905185699463,,,,,
1.567183,-5.4501213282821235,4.710537621800026,146.43481949872833,0.8043595552444458,0.44918784499168396,0.9942866563796997,,,,,
1.5765700000000038,-6.407098351529574,7.100399176301396,144.16162009229137,0.6472290754318237,0.331797331571579,0.6620861291885376,,,,,
1.585943000000043,-6.948881306439003,9.967568168601133,141.9579857625454,0.532986044883728,0.15941448509693146,0.7508234977722168,,,,,
1.595327999999995,-7.24556363669913,12.67847023815303,139.99458402710715,0.6254897117614746,-0.27418825030326843,0.048675715923309326,,,,,
1.6047340000000077,-7.097114680317173,14.83849980796139,138.37878447092413,0.39638859033584595,-0.554743766784668,-0.1725914478302002,,,,,
1.6141289999999913,-6.741474032595412,16.4007556039933,137.3094402855509,0.03517457842826843,-0.806293785572052,-0.4593121111392975,,,,,
1.6233139999999935,-6.519672983400857,17.389836302153082,136.76757033516935,-0.35383641719818115,-0.9018080234527588,-0.6863127946853638,,,,,
1.6327019999999948,-6.835867363596035,17.878424359506912,136.6259459159051,-0.7095138430595398,-0.865896999835968,-0.9478756785392761,,,,,
1.6420800000000213,-7.983285177371783,17.971772802642143,136.83902126958787,-1.0576157569885254,-0.6755353808403015,-1.2338173389434814,,,,,
1.6514680000000226,-9.984517204954132,17.98867775645974,137.46346139159425,-1.525083065032959,-0.16059336066246033,-1.586732029914856,,,,,
1.660841000000005,-12.304430692877608,18.379109182442008,138.5746042276491,-1.9604934453964233,0.6321586966514587,-1.874647855758667,,,,,
1.6702370000000428,-14.045592734929608,19.47426539352429,140.0948213998175,-1.6664493083953857,1.0786561965942383,-1.5412012338638306,,,,,
1.67962,-15.043171526720124,20.683853881947062,141.81905204167882,-1.0175901651382446,0.6300395727157593,-1.2082442045211792,,,,,
1.6890040000000113,-15.782827592711568,21.33971358525378,143.7741363348097,-0.44619277119636536,0.3116539418697357,-1.0812811851501465,,,,,
1.698570000000018,-16.639306922176768,21.160570410725278,145.78751506100787,0,0.07597997784614563,-0.5321639776229858,,,,,
1.7079600000000141,-17.690084839074856,20.40082392613822,147.67606548477167,0.31075626611709595,-0.05557796359062195,0.06912922859191895,,,,,
1.7173310000000015,-18.646571481359313,19.381133128432616,149.3080667968112,0.5641297101974487,-0.11953988671302795,0.807590901851654,,,,,
1.726728000000037,-19.36704834782628,18.334869838465643,150.51095286057418,0.8335498571395874,-0.38989564776420593,1.3112099170684814,,,,,
1.7361150000000407,-19.698634318543533,17.49836644613925,151.39840729898208,1.1419826745986938,-0.7840965986251831,1.5994224548339844,,,,,
1.7454830000000356,-19.527890504083597,17.04130753481877,152.17794005034565,1.3302972316741943,-0.8577182292938232,1.8048566579818726,,,,,
1.7548680000000445,-18.91958072585426,17.045070751676345,152.90808596102394,1.1998200416564941,-0.6906530857086182,1.7195487022399902,,,,,
1.7642490000000066,-17.951698853349647,17.52127622181748,153.4705195835598,1.018899917602539,-0.39831939339637756,1.4591264724731445,,,,,
1.7736230000000432,-16.676704260498674,18.466420509884557,153.66571188335527,0.7039682865142822,-0.044035762548446655,0.8447646498680115,,,,,
1.7830280000000016,-15.097307229727123,19.73212279065152,153.3271199613441,0.18535800278186798,0.34934747219085693,0.14601397514343262,,,,,
1.7922450000000367,-13.323558292772649,21.02379153290493,152.34747713579537,-0.40912193059921265,0.6218520402908325,-0.6516245603561401,,,,,
1.8016170000000216,-11.460590275399866,21.984772282829805,150.73731434544007,-0.8497977256774902,0.719089150428772,-1.3994837999343872,,,,,
1.810999000000038,-9.67422266620349,22.33997437498158,148.59784746505989,-1.2261605262756348,0.6661214828491211,-1.8787682056427002,,,,,
1.820395000000019,-8.14818968131802,22.015506998432798,146.30500515276307,-1.4073283672332764,0.48714783787727356,-1.9766879081726074,,,,,
1.8297660000000064,-7.036112298315245,21.170803060906785,144.44795744203932,-1.3036720752716064,0.28404873609542847,-1.8626935482025146,,,,,
1.8391560000000027,-6.451111859809634,20.114477468079023,143.5701292425057,-1.229180097579956,0.14405199885368347,-1.5701494216918945,,,,,
1.8485370000000216,-6.630015704126411,19.21001295596907,143.91411463590904,-1.037132978439331,0.09170206636190414,-1.3003469705581665,,,,,
1.8579420000000368,-7.697858080768102,18.571156455367912,145.3229277253794,-0.6614301800727844,0.08085516095161438,-1.0133216381072998,,,,,
1.867490000000032,-9.503376012970026,18.10064836614094,147.4452650846351,-0.1831769347190857,0,-0.6036785840988159,,,,,
1.8768770000000359,-11.689435884619277,17.686661384219093,149.89475277598635,0.32234737277030945,-0.15174664556980133,-0.12387233972549438,,,,,
1.8862460000000283,-13.800596237390332,17.195816782527082,152.22678534265566,0.6350345611572266,-0.213520810008049,0.4572179317474365,,,,,
1.8956510000000435,-15.475413464592267,16.49286683957153,153.9460206355655,0.8162965774536133,-0.29145175218582153,0.9551920890808105,,,,,
1.9050190000000384,-16.43237848284744,15.577356509762708,154.9156073497393,1.0349360704421997,-0.45512163639068604,1.30720853805542,,,,,
1.9144060000000422,-16.603243331804265,14.636946740093808,155.29927627509764,1.3355587720870972,-0.6729414463043213,1.73263418674469,,,,,
1.923780000000022,-16.199576720912027,13.97016470065823,155.27624816249156,1.3867462873458862,-0.7055184841156006,1.9665806293487549,,,,,
1.933179999999993,-15.464700669020138,13.773506720980528,154.95166864976457,1.2804460525512695,-0.5925891995429993,1.915544033050537,,,,,
1.9425530000000322,-14.517060596133616,14.156920399533506,154.31039424814884,1.2147159576416016,-0.465038537979126,1.6150286197662354,,,,,
1.9519349999999918,-13.340074788468781,15.07813033422268,153.5342430059529,0.9823691248893738,-0.30669865012168884,1.1469221115112305,,,,,
1.961338000000012,-11.958192163910207,16.443318545240583,152.46826269813502,0.464595228433609,-0.05723731219768524,0.48715782165527344,,,,,
1.9707070000000044,-10.433635359117805,18.085085376138238,151.09946972419888,-0.15391111373901367,0.19264154136180878,-0.3373262882232666,,,,,
1.9893040000000042,-7.136128066062302,20.84580922791049,147.3889593904769,-1.0249509811401367,0.34301266074180603,-1.7354342937469482,,,,,
1.998687000000018,-5.733552316942055,21.287511107488903,145.2938334042526,-1.1414653062820435,0.15627989172935486,-2.019744873046875,,,,,
2.0080770000000143,-4.7659731465642245,20.977687956584024,143.41334396746984,-1.10161292552948,-0.03393077850341797,-1.960663080215454,,,,,
2.017462000000023,-4.362190472029194,20.10774216008755,142.24270209855317,-1.02189040184021,-0.15940076112747192,-1.62904691696167,,,,,
2.026843000000042,-4.5943745150664,18.99832426547115,141.96573112016614,-0.9608360528945923,-0.17607203125953674,-1.263597011566162,,,,,
2.036254000000042,-5.450086538025088,17.94386503261994,142.48874083693102,-0.7784550189971924,-0.17096751928329468,-0.9809768795967102,,,,,
2.045790000000011,-6.815947080853823,17.03509587861992,143.65972139436062,-0.34023019671440125,-0.28912949562072754,-0.6172868013381958,,,,,
2.0551849999999945,-8.443645259945692,16.20090833020137,145.30942968650206,0.08892300724983215,-0.2842898964881897,-0.16859513521194458,,,,,
2.0645640000000185,-10.050971213373966,15.39718008993797,147.10028572106827,0.3301617503166199,-0.18139587342739105,0.2689771056175232,,,,,
2.073957000000007,-11.392486487405712,14.582566821850982,148.5906365083572,0.537980318069458,-0.12896715104579926,0.6982796788215637,,,,,
2.083334000000036,-12.29507071381155,13.72570295566683,149.51986769408063,0.793343722820282,-0.1952519416809082,1.0926275253295898,,,,,
2.0927200000000425,-12.655706951662696,12.864802803259488,149.89653651175533,1.0742053985595703,-0.35956889390945435,1.4297370910644531,,,,,
2.1021120000000337,-12.479225355455105,12.140259898845812,149.8798443839177,1.244372010231018,-0.469268262386322,1.680171012878418,,,,,
2.111483000000021,-11.8901807530519,11.723265578339928,149.51258755105042,1.268971562385559,-0.45731037855148315,1.7414815425872803,,,,,
2.1208770000000072,-10.983289370362955,11.74280217003317,148.91984780230524,1.223677396774292,-0.3841853737831116,1.6306287050247192,,,,,
2.1302540000000363,-9.8453169499417,12.267209550096272,148.13703238467593,1.1079455614089966,-0.31750351190567017,1.341801404953003,,,,,
2.13964100000004,-8.545775074924247,13.308606324317118,147.2397563195184,0.7982218861579895,-0.2289588451385498,0.8791260123252869,,,,,
2.1490420000000086,-7.145347068424498,14.841083837967956,146.20448119708158,0.22197221219539642,0,0.14228099584579468,,,,,
2.1584100000000035,-5.6963371906170295,16.6765181321438,144.89364146638917,-0.42137154936790466,0.22366708517074585,-0.7599642276763916,,,,,
2.167606000000035,-4.278520686010086,18.405148232057535,143.24225212930048,-0.9557579159736633,0.30087894201278687,-1.6303822994232178,,,,,
2.176998000000026,-2.9982081668950777,19.55105775777328,141.29497011074287,-1.3819018602371216,0.27937981486320496,-2.2061967849731445,,,,,
2.18638100000004,-1.970111193102418,19.851025672305013,139.2700144275283,-1.5980370044708252,0.10675457119941711,-2.5438380241394043,,,,,
2.195769000000041,-1.2818336394639058,19.301313206412892,137.44956932741036,-1.5204565525054932,-0.1950715184211731,-2.3824281692504883,,,,,
2.20515800000004,-1.0420900464382552,18.12743205711136,136.3412859055826,-1.300984501838684,-0.4382641911506653,-2.018932342529297,,,,,
2.2145380000000046,-1.3830749502134274,16.641889994097664,136.31664465779602,-1.1010024547576904,-0.4360826909542084,-1.531968593597412,,,,,
2.2239529999999945,-2.4471054926459463,15.093474651683625,137.23131821773728,-0.7139042019844055,-0.3447849154472351,-1.0383116006851196,,,,,
2.2334900000000175,-4.1091578897907475,13.565643580044123,138.86897096803958,-0.09484682977199554,-0.32025596499443054,-0.5094204545021057,,,,,
2.242891000000043,-6.065858186140387,12.090071914845755,140.93463333689945,0.4256277084350586,-0.3129388988018036,0.03415369987487793,,,,,
2.2521770000000174,-7.977126616290595,10.681185296028001,142.98745597747438,0.816811203956604,-0.2798941731452942,0.6325975656509399,,,,,
2.26163200000002,-9.53933838631697,9.327253430635118,144.64475470396292,1.1056170463562012,-0.2581024467945099,1.1421010494232178,,,,,
2.2710350000000403,-10.490495626744845,8.035860478072983,145.7802081228252,1.4295731782913208,-0.3406599164009094,1.6300926208496094,,,,,
2.2804160000000024,-10.778040043435032,6.943418549090938,146.41823523591282,1.587325930595398,-0.3772793412208557,2.0265324115753174,,,,,
2.2897859999999923,-10.504757934847014,6.224495872505385,146.5550854300941,1.6402535438537598,-0.3323821723461151,2.177231550216675,,,,,
2.2991780000000404,-9.828552111697867,6.071397417265549,146.2114715311664,1.6210049390792847,-0.245305135846138,2.071178913116455,,,,,
2.3085660000000416,-8.856438071970718,6.601537841788733,145.55518543053995,1.4957568645477295,-0.20818540453910828,1.7288250923156738,,,,,
2.317943000000014,-7.6853490545681105,7.7901567737506445,144.68438801564383,1.1171538829803467,-0.14249274134635925,1.1399517059326172,,,,,
2.327322000000038,-6.388394910281204,9.539892746756399,143.56105359990275,0.38264602422714233,0.04433412104845047,0.3385280966758728,,,,,
2.3367059999999924,-5.0299582574908746,11.633477614215533,142.07596531802537,-0.32978686690330505,0.11295738816261292,-0.5650349259376526,,,,,
2.3459210000000326,-3.667704684881718,13.683023212443992,140.31506707834802,-0.8614556789398193,0.04726877063512802,-1.4046828746795654,,,,,
2.355307000000039,-2.4396298613058836,15.273662747893722,138.52549150029625,-1.3277009725570679,-0.059709809720516205,-1.976162075996399,,,,,
2.364688000000001,-1.5809969462089766,16.154061632912555,136.8939583274173,-1.4810259342193604,-0.23335988819599152,-2.242373466491699,,,,,
2.3740700000000174,-1.1850786581856556,16.271234441951332,135.80925977608513,-1.4185502529144287,-0.3495628237724304,-2.146070718765259,,,,,
2.383454000000029,-1.2611656644015319,15.764308010895485,135.36722015433747,-1.27333402633667,-0.3533586263656616,-1.8393362760543823,,,,,
2.392844000000025,-1.8495148395734615,14.887083818798885,135.6344516782649,-1.0514194965362549,-0.2843015789985657,-1.457348346710205,,,,,
2.4022410000000036,-2.9321154306019768,13.844253711245658,136.58566384466127,-0.6854825615882874,-0.23605847358703613,-1.0523961782455444,,,,,
2.411794000000043,-4.353156278622622,12.752740598151378,137.90325054584096,-0.20260143280029297,-0.20461836457252502,-0.544787585735321,,,,,
2.4211890000000267,-5.912255428501191,11.67720058727973,139.43981761544723,0.22191254794597626,-0.20900899171829224,0,,,,,
2.430554000000029,-7.379056861146263,10.686102630766417,141.00530238752867,0.5626476407051086,-0.21612928807735443,0.5043630599975586,,,,,
2.4399530000000027,-8.567594950792722,9.848783426076743,142.37135769814572,0.8066641688346863,-0.20677901804447174,0.9669947028160095,,,,,
2.4493250000000444,-9.382147700158292,9.177050556811665,143.39647970436235,1.0598417520523071,-0.21556398272514343,1.3369282484054565,,,,,
2.458714000000043,-9.762174283785587,8.677619895789212,143.9945600577124,1.2849829196929932,-0.20473015308380127,1.584831953048706,,,,,
2.468094000000008,-9.695885164044734,8.411405863467888,144.21749069403214,1.3518801927566528,-0.14986516535282135,1.7245020866394043,,,,,
2.4774869999999964,-9.229659302973806,8.500820173137082,143.9899018875552,1.2975478172302246,-0.06804986298084259,1.678997278213501,,,,,
2.4868680000000154,-8.40514021587357,9.011754613686884,143.31235258559255,1.1914371252059937,-0.04058808088302612,1.4473345279693604,,,,,
2.4962510000000293,-7.299594562317995,9.902459041579627,142.23182101909566,1.0447551012039185,-0.05783839523792267,1.1259167194366455,,,,,
2.505632999999989,-6.011755380544074,11.102940667442887,140.92679191731753,0.8037874698638916,-0.09755433350801468,0.7394326329231262,,,,,
2.5150170000000003,-4.629366489808711,12.614932383356603,139.42809877604083,0.46410006284713745,-0.05861246585845947,0.30441832542419434,,,,,
2.524407999999994,-3.2592127406448594,14.452150684958271,137.78236635269292,0.03679710626602173,0,-0.25821584463119507,,,,,
2.5336020000000303,-1.9785851306824218,16.50288312947278,136.1258276968419,-0.5216314792633057,0.04017889127135277,-0.9343240261077881,,,,,
2.542995000000019,-0.8681283264964811,18.4914383757603,134.4272772328189,-1.0511969327926636,-0.05004744976758957,-1.5977928638458252,,,,,
2.552389000000005,-0.011995358518021295,20.025291009105693,132.67971589563,-1.3131135702133179,-0.2616153061389923,-2.063896656036377,,,,,
2.5617640000000392,0.5830290318745904,20.804446887136475,131.17038850432994,-1.416269302368164,-0.4496878981590271,-2.2640650272369385,,,,,
2.5711600000000203,0.8893128238892726,20.77493683474901,130.11934419678482,-1.3786869049072266,-0.5554593205451965,-2.1436476707458496,,,,,
2.58053000000001,0.8577604576216201,20.10376910558246,129.75951268377798,-1.248143196105957,-0.5842857360839844,-1.8276176452636719,,,,,
2.589913000000024,0.39387026053706325,19.0666538202382,130.17298638989476,-1.0717041492462158,-0.49352097511291504,-1.4919238090515137,,,,,
2.599317000000042,-0.5460203493743502,17.875647062266008,131.17642330454254,-0.7273714542388916,-0.349122554063797,-1.0917402505874634,,,,,
2.608867000000032,-1.867638714258067,16.637466273596303,132.6050017510091,-0.27757611870765686,-0.2666984498500824,-0.6562888026237488,,,,,
2.618261000000018,-3.4045399400091156,15.39875054709548,134.29738844592964,0.1652444452047348,-0.2679997682571411,-0.13231366872787476,,,,,
2.6276359999999954,-4.989074058248009,14.194699389151284,136.03634822367044,0.5621675848960876,-0.23313549160957336,0.39523524045944214,,,,,
2.6370220000000018,-6.381719012355267,13.027997675455449,137.62152095941028,0.8993494510650635,-0.16181980073451996,0.9215553998947144,,,,,
2.6464149999999904,-7.347096032888238,11.90230032293969,138.80018740272263,1.2207903861999512,-0.1469324678182602,1.397795557975769,,,,,
2.655791000000022,-7.7217179053483145,10.913313632201794,139.56113594386943,1.4608029127120972,-0.16794736683368683,1.7270915508270264,,,,,
2.6651669999999967,-7.5480068921893,10.241598561549061,139.9675777229193,1.4975907802581787,-0.10839521884918213,1.9868628978729248,,,,,
2.6745600000000422,-7.010715959039745,10.060345053856555,139.93419826572236,1.4386008977890015,0,1.9258482456207275,,,,,
2.683940000000007,-6.224970606688377,10.433248578206708,139.47430353001232,1.380345344543457,0.08174928277730942,1.6389870643615723,,,,,
2.693321000000026,-5.222646445151157,11.30465810701802,138.59136882680295,1.237657070159912,0.08681804686784744,1.2565590143203735,,,,,
2.7027160000000094,-4.086865232086846,12.537752550405983,137.4170238657865,0.983969509601593,0,0.869991660118103,,,,,
2.7121020000000158,-2.9363143233577227,14.086898212920664,136.1029439818529,0.6023112535476685,-0.06353172659873962,0.4145800471305847,,,,,
2.721474999999998,-1.858400167929715,15.996490414544125,134.64838862219145,0,-0.05910692363977432,-0.18021893501281738,,,,,
2.7307100000000446,-0.8712007840762609,18.172635570717475,133.14311163531895,-0.6270383596420288,-0.07827398926019669,-0.8633938431739807,,,,,
2.740070000000003,0.03416325589367928,20.288224681305003,131.49788700900882,-1.1858294010162354,-0.18453525006771088,-1.58505117893219,,,,,
2.7494650000000433,0.8957441058678487,21.930045749245306,129.78041133128298,-1.5534026622772217,-0.36122554540634155,-2.086286783218384,,,,,
2.7588340000000358,1.747686972810367,22.81992517414066,128.23514410207622,-1.6903210878372192,-0.5439263582229614,-2.211819648742676,,,,,
2.768236999999999,2.5110795136810733,22.953996446229,127.0053688154364,-1.6566894054412842,-0.6842585802078247,-2.076010227203369,,,,,
2.7776020000000017,3.0162889397133283,22.54349020818732,126.3541240324055,-1.5229966640472412,-0.6927580237388611,-1.7548412084579468,,,,,
2.786991999999998,3.106777851064363,21.894597663029806,126.44298446888449,-1.3358407020568848,-0.5768386721611023,-1.5433435440063477,,,,,
2.796375000000012,2.7437469970614043,21.22888699951515,127.08782367724928,-1.1314380168914795,-0.4316037893295288,-1.3710081577301025,,,,,
2.8057600000000207,1.934584492325141,20.614261366848982,128.13345068770306,-0.860125720500946,-0.3226882815361023,-1.1950576305389404,,,,,
2.815148000000022,0.7645347574904608,19.936461059810515,129.51632585667713,-0.4364142417907715,-0.2963153123855591,-0.8855786323547363,,,,,
2.824715000000026,-0.6188022059737958,19.024464941450614,131.17096828490185,0.06390807032585144,-0.31113818287849426,-0.4073070287704468,,,,,
2.83410200000003,-2.0497290901755427,17.829501819391066,132.9303834677201,0.5909261703491211,-0.27778369188308716,0.15883475542068481,,,,,
2.843479000000002,-3.321898236630322,16.440716320528402,134.62610396619894,1.188744306564331,-0.23234489560127258,0.8156443238258362,,,,,
2.852866000000006,-4.213046818733379,15.01726269622291,136.13530369871535,1.6857717037200928,-0.14083734154701233,1.456996202468872,,,,,
2.862247000000025,-4.622750635142007,13.793231371825991,137.29764962153766,1.9551969766616821,0,1.9207111597061157,,,,,
2.871635000000026,-4.613729349412054,13.037171883216766,137.92819855475213,2.153177499771118,0.08568255603313446,2.1111392974853516,,,,,
2.8810210000000325,-4.263874690669195,12.838957121783846,137.9844134298363,2.2576541900634766,0.14300541579723358,2.1055147647857666,,,,,
2.899782000000016,-2.9836400246619093,14.07682539539996,136.58168646084118,2.1373887062072754,0.11270655691623688,1.6931387186050415,,,,,
2.9091750000000047,-2.2821409554172134,15.525662142741263,135.21024118288733,1.9056354761123657,0.043490439653396606,1.390143632888794,,,,,
2.918555000000026,-1.6852376913282314,17.63671684571951,133.70940518799372,1.4885693788528442,-0.0888502448797226,0.9542731642723083,,,,,
2.9279430000000275,-1.2946456529636148,20.416056735167935,132.12322082898214,0.8380463123321533,-0.1925698220729828,0.3511276841163635,,,,,
2.9373199999999997,-1.1355483714215802,23.691528284479837,130.408304938967,0,-0.2321968525648117,-0.4514584243297577,,,,,
2.9465250000000083,-1.0888931768759302,27.0961552010604,128.48573927627098,-0.8211339116096497,-0.31638649106025696,-1.3185522556304932,,,,,
2.955919999999992,-0.9994234247105218,30.146162792036762,126.3422663852141,-1.6018166542053223,-0.4887770712375641,-2.0697386264801025,,,,,
2.9653069999999957,-0.8878263270770692,32.424439305870116,123.98031826578453,-2.2327380180358887,-0.718189001083374,-2.628378391265869,,,,,
2.9746920000000046,-0.6903877867821749,33.642911021824624,121.83131606514999,-2.456226348876953,-0.973533034324646,-2.8169071674346924,,,,,
2.984059000000002,-0.3285192707445455,33.77642994358108,120.39565082994184,-2.3225278854370117,-1.100066065788269,-2.62265682220459,,,,,
2.993461000000025,0.14547543651067835,33.0375761905355,120.0691665426524,-2.093928098678589,-1.0322964191436768,-2.151527166366577,,,,,
3.002837999999997,0.4859649640786873,31.84688571824445,120.82273493662468,-1.763765811920166,-0.8612046241760254,-1.7063666582107544,,,,,
3.0122220000000084,0.48799300889303937,30.541901513225927,122.37133227641264,-1.315500020980835,-0.6734551787376404,-1.398277759552002,,,,,
3.021611000000007,0.1344278445282738,29.248179648476583,124.3995693322171,-0.7768023014068604,-0.49346303939819336,-1.1023637056350708,,,,,
3.0311700000000315,-0.45955120088241475,27.82003452698584,126.670859271554,-0.16454342007637024,-0.3635425865650177,-0.6723594069480896,,,,,
3.0405719999999974,-1.164751273782239,26.075756587392586,129.03437380057164,0.5049404501914978,-0.2747860848903656,-0.09868931770324707,,,,,
3.0499430000000416,-1.8072255800350039,23.994135736463395,131.33505737063177,1.1962171792984009,-0.1410130113363266,0.6267468333244324,,,,,
3.059331000000043,-2.2202495157838142,21.74786765573623,133.42719567488763,1.7869337797164917,0.0701427012681961,1.3444862365722656,,,,,
3.0687010000000328,-2.285714424596339,19.639111838881593,135.0954550123987,2.212202310562134,0.33524176478385925,1.921038031578064,,,,,
3.0780730000000176,-2.0135224228011768,17.966631082576136,136.08322274892754,2.4785914421081543,0.5060492753982544,2.233792304992676,,,,,
3.0874660000000063,-1.502729222667772,16.91997699422898,136.33494770186365,2.570476770401001,0.5472487807273865,2.2602665424346924,,,,,
3.096858999999995,-0.8585218700438675,16.646747373874575,135.92553086484912,2.440251111984253,0.5682351589202881,2.1435000896453857,,,,,
3.106244000000004,-0.24572994360749695,17.222440766523267,135.03172513971091,2.2019588947296143,0.4864843785762787,1.836691975593567,,,,,
3.11562600000002,0.22204921216108567,18.661427797109873,133.78913425256897,1.8125154972076416,0.28546833992004395,1.421574592590332,,,,,
3.1250080000000366,0.411283730825586,20.948803770861613,132.2973320215743,1.200788974761963,0.09236042946577072,0.7894924879074097,,,,,
3.134411,0.3051330171326908,23.97669633292761,130.6828290443014,0.39464330673217773,-0.07635791599750519,-0.05872631072998047,,,,,
3.1436120000000187,0.025503486450765656,27.405338942367315,129.0978790890339,-0.5528165102005005,-0.23439115285873413,-1.025394082069397,,,,,
3.1529910000000427,-0.30634070155650783,30.630252202519188,127.37103471287828,-1.3512604236602783,-0.49340346455574036,-1.901616096496582,,,,,
3.162379000000044,-0.5116186858676104,33.03389859016116,125.46559988488087,-1.9007338285446167,-0.7999102473258972,-2.492399215698242,,,,,
3.171763999999996,-0.4831529188361685,34.32483918945907,123.75274945799192,-2.190645217895508,-1.0905481576919556,-2.696093797683716,,,,,
3.1811309999999935,-0.24758774823239899,34.6347389520158,122.70106279869815,-2.181306838989258,-1.2030245065689087,-2.578861713409424,,,,,
3.190532000000019,0.06567297963418506,34.25759100289891,122.63928443555345,-2.0154471397399902,-1.061859369277954,-2.301015853881836,,,,,
3.1999170000000277,0.20684970869506442,33.448944068719726,123.36749715580258,-1.7143594026565552,-0.8291962146759033,-2.087564706802368,,,,,
3.209303000000034,0.04005842580639889,32.36280891096529,124.54663918613393,-1.313034176826477,-0.7438145279884338,-1.8292235136032104,,,,,
3.2186920000000327,-0.4691444572113524,31.08760542937816,126.11506139996946,-0.8710482716560364,-0.6876561045646667,-1.4746536016464233,,,,,
3.2280920000000037,-1.2262803892437046,29.64609570271921,128.03145807916687,-0.37352266907691956,-0.5970127582550049,-0.9950530529022217,,,,,
3.2376310000000217,-2.107494854717186,27.98413765415027,130.1987229982307,0.2520557641983032,-0.5240899324417114,-0.3976583480834961,,,,,
3.247007999999994,-2.9506736331157533,26.07538753601441,132.53492367460856,0.9685347080230713,-0.3790561854839325,0.3197970390319824,,,,,
3.2563949999999977,-3.603107876007593,24.042288708272114,134.86347623744098,1.609832763671875,-0.11536067724227905,1.0534875392913818,,,,,
3.2657760000000167,-3.963376804688438,22.11704723752875,136.93698631476371,2.0654587745666504,0.21701940894126892,1.6880589723587036,,,,,
3.2751670000000104,-4.02597791362153,20.55846984600801,138.46951215937415,2.371474504470825,0.5090839862823486,2.1018407344818115,,,,,
3.284556000000009,-3.844014693632382,19.552155080297293,139.2523124512722,2.5001566410064697,0.6978172063827515,2.25056791305542,,,,,
3.293935000000033,-3.5012058054525377,19.211778590585748,139.2795839440465,2.4062247276306152,0.7889351844787598,2.1364870071411133,,,,,
3.303309000000013,-3.1073105466057775,19.548871281258755,138.51813246982246,2.2080347537994385,0.7313524484634399,1.8730778694152832,,,,,
3.3127110000000357,-2.765913486848888,20.511312118542378,137.1502719338198,1.891731858253479,0.5388072729110718,1.5203447341918945,,,,,
3.3220719999999915,-2.6452401022125205,22.0724265239017,135.44824749730668,1.362017273902893,0.3311763107776642,1.0423781871795654,,,,,
3.331479999999999,-2.868404803619033,24.22882967520921,133.55270024986947,0.7012200951576233,0.0846731886267662,0.40267622470855713,,,,,
3.3408580000000256,-3.418035021090969,26.87629255679367,131.5579925719088,-0.1440371572971344,-0.19838444888591766,-0.4297315776348114,,,,,
3.3500640000000317,-4.1559791114032665,29.693029930085288,129.4231446359009,-1.0899269580841064,-0.5036134719848633,-1.319034457206726,,,,,
3.3594469999999887,-4.926770790488309,32.17291705519006,127.15794750041483,-1.859468698501587,-0.8381585478782654,-2.0889458656311035,,,,,
3.368832999999995,-5.498634011376794,33.83665824819566,125.11076783146329,-2.311894178390503,-1.2004328966140747,-2.5760514736175537,,,,,
3.3782110000000216,-5.679352583617198,34.48119115385859,123.75368276570251,-2.4502060413360596,-1.4304945468902588,-2.727623224258423,,,,,
3.3875960000000305,-5.516051810408795,34.11969666269815,123.52289168041447,-2.2770540714263916,-1.37466299533844,-2.5830392837524414,,,,,
3.3969810000000393,-5.218519655582403,32.90018534147636,124.33911017732989,-1.8826839923858643,-1.1416823863983154,-2.1832706928253174,,,,,
3.406376000000023,-5.029780343719994,31.10163600473699,125.8318774234404,-1.3359028100967407,-0.9873068332672119,-1.6710948944091797,,,,,
3.415761000000032,-5.040302591708433,29.01489738039067,127.76819036739252,-0.6837347149848938,-0.8767236471176147,-1.0819348096847534,,,,,
3.4253330000000233,-5.2208833401180295,26.818839580079587,129.9563939703838,0,-0.7596178650856018,-0.43026480078697205,,,,,
3.4346990000000233,-5.44761032366022,24.588672820033175,132.21190095239623,0.6447188854217529,-0.5463671684265137,0.1903437376022339,,,,,
3.4440870000000245,-5.568538158545576,22.3507231287222,134.50080781850716,1.242073893547058,-0.23770356178283691,0.7506431937217712,,,,,
3.453469000000041,-5.486990414364478,20.157520829906833,136.63714025980738,1.7695541381835938,0.10074091702699661,1.2635014057159424,,,,,
3.462851999999998,-5.214030315691466,18.127445715597307,138.37647452504922,2.225548267364502,0.43235599994659424,1.6875430345535278,,,,,
3.4722360000000094,-4.782002268881066,16.433681256216637,139.7165726158669,2.4842662811279297,0.7250933647155762,1.9555965662002563,,,,,
3.4816260000000057,-4.2684542214322985,15.249580829764014,140.48995321382912,2.639821767807007,0.9072633385658264,2.0891048908233643,,,,,
3.4910020000000372,-3.797693378314921,14.676885975179097,140.4837221364016,2.692629337310791,1.018599033355713,2.0222883224487305,,,,,
3.5003980000000183,-3.395376543439871,14.774737675922163,139.80447086782792,2.546905279159546,1.0034981966018677,1.845639705657959,,,,,
3.509776000000045,-3.145679444523498,15.576213341187295,138.5330955217179,2.2963974475860596,0.8097463250160217,1.5462512969970703,,,,,
3.5191619999999944,-3.167643569654922,17.076031230397238,136.9567497564906,1.9045214653015137,0.5464324355125427,1.1436983346939087,,,,,
3.5285480000000007,-3.587231131736473,19.245221033277275,135.20979104006298,1.2502158880233765,0.2647622227668762,0.5202663540840149,,,,,
3.5379310000000146,-4.409411611952256,21.92544758745894,133.13675229906949,0.4492747187614441,-0.08849965780973434,-0.22391659021377563,,,,,
3.547161000000017,-5.444913198572459,24.79417560713625,130.69427122887694,-0.4529504179954529,-0.5062919855117798,-1.0289008617401123,,,,,
3.5565240000000244,-6.495241613262755,27.469414370394286,128.1325658719875,-1.4265642166137695,-0.9300469160079956,-1.7587482929229736,,,,,
3.565903999999989,-7.39510238747267,29.596412655173758,125.85712810879764,-2.146204710006714,-1.317680835723877,-2.305804491043091,,,,,
3.5752899999999954,-7.9286334731200325,30.918791013960092,124.26807556350722,-2.471529960632324,-1.5647765398025513,-2.683119535446167,,,,,
3.584685000000036,-8.04077695234874,31.286444812738203,123.67153206517146,-2.5853519439697266,-1.5726052522659302,-2.8225882053375244,,,,,
3.5940689999999904,-7.8898286837854466,30.74518278539778,123.94799572083525,-2.398003578186035,-1.4082467555999756,-2.61592960357666,,,,,
3.603447000000017,-7.68385118130116,29.500911325044004,124.94400028575913,-2.010526657104492,-1.2551548480987549,-2.1686720848083496,,,,,
3.6128270000000384,-7.563249706737176,27.823052435843156,126.49738218534044,-1.4179251194000244,-1.1687461137771606,-1.6094377040863037,,,,,
3.6222130000000448,-7.548481354734865,25.917690125313054,128.61659276117803,-0.7541394233703613,-0.9522778391838074,-1.0290062427520752,,,,,
3.631808000000035,-7.603530560264623,23.838803749855387,131.236202720013,0,-0.6773416996002197,-0.42157652974128723,,,,,
3.6411640000000034,-7.662175749600601,21.592310184124035,134.0732809285198,0.82671058177948,-0.4062393009662628,0.2577240467071533,,,,,
3.6505470000000173,-7.626274177068141,19.256187671565712,136.8420796618094,1.552712321281433,-0.043564677238464355,0.9650535583496094,,,,,
3.659922999999992,-7.395201977857339,17.017971063751318,139.2121585406401,2.139988422393799,0.33706167340278625,1.585922122001648,,,,,
3.669302000000016,-6.9571502586357665,15.099221790427436,140.99113660872177,2.584340810775757,0.6578903794288635,1.9911024570465088,,,,,
3.678702000000044,-6.362706427629562,13.644544907618965,142.05560607249555,2.8213157653808594,0.9063038229942322,2.171802043914795,,,,,
3.6880930000000376,-5.66414515934745,12.791509552358233,142.3601932592254,2.841470241546631,1.0354012250900269,2.135209321975708,,,,,
3.6974739999999997,-4.951597465738346,12.66972671143561,141.8724339436687,2.700316905975342,1.0841223001480103,1.9735569953918457,,,,,
3.7068520000000262,-4.3524536139992405,13.320985072830263,140.68463592770252,2.4527523517608643,0.93833988904953,1.6085461378097534,,,,,
3.7162360000000376,-3.9898784810604493,14.72153855391423,138.9953043873606,1.9899311065673828,0.627762496471405,1.1355218887329102,,,,,
3.7256189999999947,-4.008868131067604,16.876418821202954,136.99883993110763,1.2397050857543945,0.26722243428230286,0.4976937770843506,,,,,
3.735005000000001,-4.462941547212754,19.72010729425302,134.85174414402584,0.3164331316947937,-0.11902305483818054,-0.27823716402053833,,,,,
3.744216999999992,-5.235791134306305,22.9204183592884,132.6362435469401,-0.6170576810836792,-0.4898401200771332,-1.1626720428466797,,,,,
3.753596000000016,-6.03731768532565,25.90630640949447,130.4832771851617,-1.573182225227356,-0.8616310954093933,-2.050110340118408,,,,,
3.7629870000000096,-6.681917763389811,28.097824547315867,128.6186643225136,-2.3572375774383545,-1.271078109741211,-2.7264113426208496,,,,,
3.7723660000000336,-7.015620821423609,29.122934460755868,127.35960988301551,-2.704359292984009,-1.5144394636154175,-2.9996042251586914,,,,,
3.78175600000003,-6.980097806696364,28.90757982911902,127.036108497594,-2.586134195327759,-1.5267114639282227,-2.867767572402954,,,,,
3.7911450000000286,-6.72371684676232,27.67590656829391,127.66849211818808,-2.1470742225646973,-1.387643814086914,-2.3681488037109375,,,,,
3.800523999999996,-6.493687255671897,25.829096335487268,129.07038730060995,-1.533402919769287,-1.1906747817993164,-1.7305166721343994,,,,,
3.8099129999999946,-6.445691880228808,23.749398613180567,131.09838053675205,-0.7926293015480042,-0.9391277432441711,-1.0522745847702026,,,,,
3.8288440000000037,-6.945696757379465,19.576360466367596,136.01483431840504,0.7183781862258911,-0.36674433946609497,0.29569530487060547,,,,,
3.838245000000029,-7.2917317947815254,17.5527327281945,138.40494294124764,1.4205596446990967,-0.03905496001243591,0.9601518511772156,,,,,
3.847623999999996,-7.483860987826513,15.666654740813806,140.5722774828027,2.028297185897827,0.278393030166626,1.5773383378982544,,,,,
3.8570040000000176,-7.444062187827077,14.084036746379835,142.35923467034547,2.4673986434936523,0.5892605185508728,2.025768756866455,,,,,
3.8663930000000164,-7.194375601504754,12.987290468986934,143.49858381357203,2.684248924255371,0.8340212106704712,2.2252578735351562,,,,,
3.875775000000033,-6.754450565598033,12.544167156445331,143.82843010019678,2.6706063747406006,0.981003999710083,2.199472427368164,,,,,
3.8851620000000366,-6.2193486429963984,12.830973890241706,143.3425745100467,2.5510499477386475,0.963043212890625,1.965051531791687,,,,,
3.8945360000000164,-5.655959664740147,13.815464523231414,142.20086689190344,2.1966452598571777,0.7786572575569153,1.5522239208221436,,,,,
3.90393499999999,-5.169439102302121,15.436710961287098,140.4915917046871,1.591818928718567,0.4926208257675171,1.0124894380569458,,,,,
3.913310000000024,-4.897791236415032,17.701551415514814,138.34617590598924,0.814499020576477,0.06449812650680542,0.3093745708465576,,,,,
3.922695000000033,-4.941592621526379,20.55399953716913,136.01212363407487,-0.08836299180984497,-0.3875812590122223,-0.5434409379959106,,,,,
3.931901000000039,-5.227577824655966,23.63764538262102,133.80485181134912,-0.9952272772789001,-0.7527223229408264,-1.5005779266357422,,,,,
3.9412940000000276,-5.5125701746219375,26.388514610959458,131.92531656243455,-1.8994197845458984,-1.0185356140136719,-2.40421986579895,,,,,
3.9506770000000415,-5.691637275158018,28.257904701922666,130.44807732996637,-2.564126968383789,-1.2829504013061523,-3.045405864715576,,,,,
3.960059000000001,-5.738978835234891,28.875062724032034,129.69437226532278,-2.6998469829559326,-1.4118173122406006,-3.205152750015259,,,,,
3.96935000000002,-5.648004815460639,28.158312150408783,129.87093949234065,-2.3792428970336914,-1.3686929941177368,-2.901841640472412,,,,,
3.9788240000000314,-5.525738510965089,26.377721837142285,130.9706354171395,-1.8117485046386719,-1.1910746097564697,-2.2595913410186768,,,,,
3.9882049999999936,-5.5013953337130035,23.969395189405457,132.72737685711053,-0.9584538340568542,-0.9716035723686218,-1.4395265579223633,,,,,
3.997786000000019,-5.628660412455308,21.32244764145511,134.92895875265035,-0.05997708439826965,-0.690899133682251,-0.6254772543907166,,,,,
4.007153000000017,-5.875780550610965,18.693434883427305,137.15629827690776,0.7518881559371948,-0.34345072507858276,0.14230656623840332,,,,,
4.016545000000008,-6.129707012712261,16.224530357212046,139.2222772305765,1.455475091934204,0,0.8765329718589783,,,,,
4.025932000000012,-6.295934184306823,14.028821549732953,140.9582132239906,1.9833436012268066,0.3420942723751068,1.4937314987182617,,,,,
4.0353020000000015,-6.337798574260737,12.249845669879043,142.32586201529978,2.4130496978759766,0.5995339155197144,1.9401471614837646,,,,,
4.044691999999998,-6.210258825866832,11.03695374879016,143.2359028800345,2.652176856994629,0.7891297936439514,2.1838104724884033,,,,,
4.054092000000026,-5.907415729077938,10.512293929805868,143.49496662524336,2.6170737743377686,0.9098072648048401,2.169116497039795,,,,,
4.06346400000001,-5.498216486776599,10.719444944729135,143.01078618986963,2.4598312377929688,0.9137364029884338,1.9619255065917969,,,,,
4.072853000000009,-5.05052911859943,11.58962772408209,141.9041018450244,2.222435235977173,0.7535771727561951,1.6232784986495972,,,,,
4.082229000000041,-4.662385771079611,13.049875540980063,140.41218185035456,1.7559173107147217,0.4708029329776764,1.1833239793777466,,,,,
4.0916160000000446,-4.453162899846482,15.166855632656185,138.62540117857392,0.9604401588439941,0.16375377774238586,0.5354156494140625,,,,,
4.100996000000009,-4.532392401863954,17.964569186218952,136.56111127653614,0.06149284541606903,-0.212019681930542,-0.28508347272872925,,,,,
4.110205000000008,-4.7891189594095716,21.090925017226386,134.4056281972704,-0.7935482859611511,-0.5650460720062256,-1.1859568357467651,,,,,
4.1195900000000165,-4.992595030288496,23.909576652797476,132.4081077731934,-1.6025919914245605,-0.9088869094848633,-2.0621585845947266,,,,,
4.138358000000039,-4.865670254366437,26.693648573973775,129.98951549463038,-2.4746434688568115,-1.2132737636566162,-2.7956035137176514,,,,,
4.147760000000005,-4.665116555110262,26.355858950880087,129.88970743106148,-2.3247342109680176,-1.102471947669983,-2.602799415588379,,,,,
4.157136000000037,-4.61325437756287,25.123041021063116,130.4712336738001,-1.9232155084609985,-0.9441729187965393,-2.151506185531616,,,,,
4.166513000000009,-4.830055010496947,23.373737717480438,131.64785705782742,-1.3173831701278687,-0.8421030044555664,-1.5661613941192627,,,,,
4.175894000000028,-5.2819204775476685,21.427040974802892,133.26444260795571,-0.6438773274421692,-0.6704642176628113,-0.9252267479896545,,,,,
4.185476999999992,-5.888757407276673,19.434008247848862,135.13860412400854,0,-0.4366343915462494,-0.36026036739349365,,,,,
4.194834000000014,-6.5065547310939476,17.46180822016471,137.07215161220086,0.6628901958465576,-0.2530277371406555,0.23050028085708618,,,,,
4.204233000000045,-7.020482548201029,15.567411363857678,138.91112044890696,1.255100965499878,-0.031590498983860016,0.8165647387504578,,,,,
4.213628000000028,-7.366073662299432,13.84198972229749,140.52175346880784,1.7649707794189453,0.2179339975118637,1.3208918571472168,,,,,
4.223002000000008,-7.518000653451853,12.424409250547454,141.77563371830678,2.1295697689056396,0.4576583206653595,1.6879963874816895,,,,,
4.232385000000022,-7.4840581253339415,11.459718919276177,142.48343445796542,2.2158217430114746,0.6432225108146667,1.8638067245483398,,,,,
4.241760999999997,-7.292696906737721,11.131500615360192,142.48821087188995,2.1826324462890625,0.7035589218139648,1.8573930263519287,,,,,
4.251147000000003,-6.984218359592871,11.56767883038972,141.90265653430663,2.023200035095215,0.6056591272354126,1.6859595775604248,,,,,
4.260534000000007,-6.654655996301284,12.767564517712966,140.942787616242,1.6888946294784546,0.415332555770874,1.3002504110336304,,,,,
4.269924000000003,-6.405127373738396,14.647978924405235,139.66852898169623,1.0439209938049316,0.23212529718875885,0.6935913562774658,,,,,
4.279315999999994,-6.282552310653294,17.07004714379716,138.05258970758976,0.29402104020118713,0,-0.03618419170379639,,,,,
4.288532000000032,-6.229461668071468,19.73334651337265,136.37302921038435,-0.42706161737442017,-0.26850026845932007,-0.8022516965866089,,,,,
4.297903000000019,-6.171918663133254,22.22489364056865,134.87814296603852,-1.1984946727752686,-0.49144572019577026,-1.5627970695495605,,,,,
4.307284000000038,-6.104862264218567,24.1860370192075,133.5855454021253,-1.8016817569732666,-0.7169730067253113,-2.1577956676483154,,,,,
4.316673000000037,-6.054102183622238,25.36034863203546,132.68817781829287,-2.15151309967041,-0.9080263376235962,-2.51216983795166,,,,,
4.326053000000002,-6.07654620537689,25.59819097539109,132.3098973153662,-2.2273097038269043,-0.961055338382721,-2.583556652069092,,,,,
4.335430000000031,-6.208964968219637,24.901552372385787,132.64756515288198,-2.0196824073791504,-0.9264581203460693,-2.3371694087982178,,,,,
4.344829000000004,-6.482271029005162,23.449319797642715,133.77487295094187,-1.5621246099472046,-0.7938624024391174,-1.8921880722045898,,,,,
4.354200999999989,-6.920603092162177,21.479014589118712,135.40989811100226,-0.9329049587249756,-0.6267089247703552,-1.310271978378296,,,,,
4.363781000000017,-7.520447948865304,19.212552353966903,137.35628904789155,-0.2440910041332245,-0.45981642603874207,-0.6865730285644531,,,,,
4.373167000000024,-8.259789447170224,16.791184813006822,139.3985180352039,0.39794498682022095,-0.23505480587482452,-0.11051595211029053,,,,,
4.382538000000011,-9.011553923990837,14.30987597214381,141.3043567080008,0.9923355579376221,-0.051237985491752625,0.47916877269744873,,,,,
4.391929000000005,-9.684436155709216,11.875825220019149,142.95575769342545,1.6627099514007568,0.07775287330150604,1.140091896057129,,,,,
4.401311000000021,-10.193346894376866,9.689735637216664,144.33523244998673,2.272076368331909,0.19225330650806427,1.7372474670410156,,,,,
4.410698000000025,-10.448549928716648,7.998631356698678,145.42125584604022,2.544985771179199,0.36941564083099365,2.1913158893585205,,,,,
4.420083000000034,-10.462977121589063,7.01321756717544,146.1065113250205,2.6484711170196533,0.5101248025894165,2.3126158714294434,,,,,
4.429463999999996,-10.225020940208452,6.855555265297482,146.20644473924654,2.5520434379577637,0.5954328775405884,2.169052839279175,,,,,
4.438846000000012,-9.809246020823922,7.533845934732776,145.60070851962962,2.2363405227661133,0.5156175494194031,1.8193644285202026,,,,,
4.448239000000001,-9.338970721616638,9.02927886607101,144.33582178672614,1.691939115524292,0.3425281047821045,1.295900583267212,,,,,
4.457618000000025,-8.948718201797032,11.298652248135442,142.64486645356348,0.9093739986419678,0.12178787589073181,0.5936470627784729,,,,,
4.466992000000005,-8.683376902978843,14.170917767700177,140.70790307768422,0.07620495557785034,-0.1408117711544037,-0.2110864520072937,,,,,
4.476202999999998,-8.496795151975057,17.266453630450314,138.76287639789905,-0.7548319697380066,-0.3910719156265259,-1.1015924215316772,,,,,
4.485597000000041,-8.312339932414229,20.145106854161256,137.03216510882928,-1.6534819602966309,-0.6055501699447632,-1.9871926307678223,,,,,
4.494972000000018,-8.184996536862146,22.367069855214616,135.5135764090276,-2.310059070587158,-0.7933485507965088,-2.6741013526916504,,,,,
4.504353000000037,-8.147097145626251,23.539451199378856,134.40079868585178,-2.516429901123047,-0.9226968288421631,-3.028141736984253,,,,,
4.513748000000021,-8.190546095385162,23.419451630435724,134.05725297938022,-2.404890775680542,-0.9763017296791077,-2.977628707885742,,,,,
4.5231280000000424,-8.364467155930988,22.105456005461633,134.68035343715292,-1.9926931858062744,-0.8814867734909058,-2.520209789276123,,,,,
4.53250300000002,-8.784984796698335,19.981764163783225,136.03342518619112,-1.4170397520065308,-0.7329185009002686,-1.904047966003418,,,,,
4.541897000000006,-9.461261246675017,17.436863595237675,137.93458227553882,-0.5650890469551086,-0.5883527398109436,-1.1377370357513428,,,,,
4.551462000000015,-10.325923011584518,14.784682158949678,140.10605992930863,0.20442862808704376,-0.43937551975250244,-0.42175453901290894,,,,,
4.56083799999999,-11.230664543299637,12.236161328311457,142.23438435786335,0.8246201276779175,-0.26204586029052734,0.24020135402679443,,,,,
4.57023700000002,-12.028742995998151,9.916710611686998,144.19560853695148,1.4363758563995361,-0.12387245893478394,0.8590037226676941,,,,,
4.57960300000002,-12.622097564075746,7.91646037939804,145.96712255611453,1.9491815567016602,0.07247167825698853,1.382453441619873,,,,,
4.588996000000009,-13.007738900700451,6.302813781516839,147.46366168684906,2.418264150619507,0.24860453605651855,1.8068039417266846,,,,,
4.5983830000000125,-13.200630895826547,5.172369099342591,148.49908016109552,2.596273899078369,0.4436100125312805,2.0640382766723633,,,,,
4.6077620000000366,-13.180740892098331,4.665411557500991,148.86732692414841,2.5276787281036377,0.5368984341621399,2.132516860961914,,,,,
4.617144999999994,-12.973333990628795,4.87864246618161,148.52448061363032,2.411583423614502,0.4974466562271118,1.9599822759628296,,,,,
4.626526000000013,-12.627701288577883,5.815624844390561,147.56567308989958,2.1233530044555664,0.3433884382247925,1.6180496215820312,,,,,
4.635923999999989,-12.248071837446146,7.408388160637399,146.14342230643237,1.5946455001831055,0.18377265334129333,1.159085750579834,,,,,
4.6453089999999975,-11.93822485822174,9.595910584902374,144.43535577122265,0.8830780386924744,0.04413752257823944,0.49907243251800537,,,,,
4.654684000000032,-11.667686067940826,12.242926441731278,142.50633999512897,0,-0.12420524656772614,-0.30485451221466064,,,,,
4.66390100000001,-11.400445613267697,15.011428060953163,140.41125409585874,-0.8424110412597656,-0.4000532031059265,-1.155439853668213,,,,,
4.673285000000021,-11.13960513448873,17.458698582096712,138.39344353499237,-1.5997735261917114,-0.6052882671356201,-1.981260061264038,,,,,
4.682655000000011,-10.861183825473935,19.144117465771455,136.6858303561444,-2.2316231727600098,-0.7191829085350037,-2.514997720718384,,,,,
4.692045000000007,-10.62596477330098,19.79528131286556,135.58329485127447,-2.433920383453369,-0.8703355193138123,-2.724277973175049,,,,,
4.701431000000014,-10.478359414319643,19.37819676996729,135.21795751861268,-2.2614383697509766,-0.9237586259841919,-2.5263092517852783,,,,,
4.710819000000015,-10.517729799871793,18.11223059319537,135.7328866401648,-1.8936686515808105,-0.8278853893280029,-2.083723783493042,,,,,
4.720206000000019,-10.814825900980445,16.32671299273551,136.88691205376128,-1.2880569696426392,-0.7212713360786438,-1.4838242530822754,,,,,
4.72960599999999,-11.329576551731165,14.342344537478139,138.60639686876368,-0.5362632274627686,-0.567051112651825,-0.8025802969932556,,,,,
4.739157000000034,-11.961909654411022,12.372281883532615,140.60840101056164,0.19058936834335327,-0.31581300497055054,-0.16574019193649292,,,,,
4.748523000000034,-12.560580081730123,10.539111156295206,142.5741922909239,0.7643540501594543,-0.08681012690067291,0.3931332230567932,,,,,
4.757918000000018,-13.011654166820222,8.891240686272349,144.21733545906721,1.2764674425125122,0.04627031087875366,0.9217936396598816,,,,,
4.767301000000032,-13.298565258736755,7.475519184553836,145.4316104338892,1.7634351253509521,0.11460468918085098,1.3557690382003784,,,,,
4.7766900000000305,-13.379900892347699,6.374808034570883,146.2725684481642,2.177953004837036,0.23119014501571655,1.7571725845336914,,,,,
4.786061000000018,-13.2510190375835,5.679308921787656,146.75379285331474,2.434769630432129,0.3495989143848419,1.9681851863861084,,,,,
4.795464000000038,-12.895847972169053,5.475975614390402,146.77138222835526,2.3741416931152344,0.4632275104522705,1.995489478111267,,,,,
4.804831000000036,-12.34158624142419,5.841308920929012,146.13872667312646,2.223594903945923,0.4566243886947632,1.8136842250823975,,,,,
4.814223000000027,-11.658855481132507,6.837223690039625,144.91673164501927,1.9114700555801392,0.2645699679851532,1.4322152137756348,,,,,
4.823615000000018,-10.960988054699508,8.500422578926994,143.30554609310323,1.2323929071426392,0.06385121494531631,0.9007505178451538,,,,,
4.832986000000005,-10.343865365532844,10.799933032071095,141.41396042124666,0.4086834192276001,-0.1196012794971466,0.1538790464401245,,,,,
4.842397000000005,-9.773197888092804,13.517805950614392,139.40025340804112,-0.47825032472610474,-0.28050196170806885,-0.7124810218811035,,,,,
4.851578000000018,-9.197970654376503,16.21140586629985,137.44035916315235,-1.408328652381897,-0.41552120447158813,-1.6364619731903076,,,,,
4.860960000000034,-8.638946326044037,18.367896139910908,135.71548621804334,-2.1395304203033447,-0.5811525583267212,-2.3730082511901855,,,,,
4.870341999999994,-8.158813813081471,19.59579439212935,134.51071941212558,-2.559929847717285,-0.7615411877632141,-2.7198500633239746,,,,,
4.879742000000022,-7.862149910172746,19.77012167569143,133.9065431412601,-2.540961265563965,-0.9055914878845215,-2.6716909408569336,,,,,
4.889124000000038,-7.835079603068158,19.01869633898527,134.11040211021495,-2.1946513652801514,-0.9054383039474487,-2.3288538455963135,,,,,
4.898519000000022,-8.111586160065464,17.639206221862565,135.26542701765467,-1.6643574237823486,-0.817135751247406,-1.8025760650634766,,,,,
4.907892000000004,-8.66869896486927,15.92113091753684,137.07086846579023,-0.8917688727378845,-0.6766122579574585,-1.157813310623169,,,,,
4.917448000000036,-9.405548306201748,14.04897813603983,139.294840255975,-0.028094828128814697,-0.4165784418582916,-0.45562922954559326,,,,,
4.926830999999993,-10.153035497750633,12.118731934934116,141.60549544203732,0.7401449680328369,-0.15339456498622894,0.25124990940093994,,,,,
4.936231000000021,-10.763629356312562,10.213706566851064,143.60365697353427,1.3348517417907715,0.036417797207832336,0.8941483497619629,,,,,
4.945604000000003,-11.117025560601977,8.473231642287695,144.99634968845135,1.8019076585769653,0.16996432840824127,1.398957371711731,,,,,
4.954994999999997,-11.147092661298545,7.0703868555906135,145.83452785725362,2.2131893634796143,0.21478965878486633,1.7488775253295898,,,,,
4.964370000000031,-10.873050333365601,6.135013036559998,146.27210680968716,2.463176965713501,0.26587268710136414,1.9493794441223145,,,,,
4.973757000000035,-10.337750529853471,5.734019549459363,146.25394650559443,2.483544111251831,0.39131617546081543,1.9667221307754517,,,,,
4.9831270000000245,-9.595882278405934,5.920250833435009,145.6524176426773,2.2920656204223633,0.4385967254638672,1.8394019603729248,,,,,
4.992527999999993,-8.707927512996548,6.754263104134208,144.36084595044636,2.0674123764038086,0.30113518238067627,1.5354902744293213,,,,,
5.001901000000032,-7.799609566465509,8.244818820751714,142.560749444704,1.7323275804519653,0.0706188976764679,1.172546148300171,,,,,
5.011307000000045,-7.013011617284688,10.380141491753736,140.70180216816755,1.1622737646102905,-0.10292236506938934,0.6577919125556946,,,,,
5.020701000000031,-6.395707182792817,13.144493987017764,138.8369209868393,0.30157792568206787,-0.20653069019317627,-0.09641659259796143,,,,,
5.029909000000032,-5.861064543709194,16.326360069414232,136.84663899122665,-0.6168186664581299,-0.3487674593925476,-0.9763776659965515,,,,,
5.039280000000019,-5.255343926968441,19.445690806703457,134.97329817843558,-1.5100270509719849,-0.5912202596664429,-1.833256721496582,,,,,
5.048660000000041,-4.630555221590652,21.961445889031133,133.3059390085751,-2.2558586597442627,-0.8662373423576355,-2.544328451156616,,,,,
5.058042999999998,-4.057173693601077,23.417042820425948,131.98269317005773,-2.62233304977417,-1.0713849067687988,-2.819761276245117,,,,,
5.067421000000024,-3.5578225459897865,23.617950307671958,131.3015559015697,-2.5454297065734863,-1.1192233562469482,-2.7505760192871094,,,,,
5.076809000000026,-3.162950690546902,22.68095658278901,131.49472243340895,-2.17616605758667,-0.9980483055114746,-2.311088800430298,,,,,
5.086207999999999,-2.9353448343070894,20.97665527468863,132.34701067279164,-1.5759652853012085,-0.7995978593826294,-1.6730446815490723,,,,,
5.095581000000038,-2.87013793627153,18.84740627653599,133.66889031364434,-0.779595136642456,-0.542605459690094,-0.9627659320831299,,,,,
5.105143999999996,-2.9361315656831395,16.533542869708526,135.20879737910988,0,-0.2951803207397461,-0.26760900020599365,,,,,
5.114526000000012,-3.033511459168292,14.1895243478159,136.69114445878694,0.6974999904632568,-0.03214377537369728,0.36679065227508545,,,,,
5.1239120000000185,-3.0424089961700096,11.961517701225002,137.89324437864744,1.1385974884033203,0.20222541689872742,0.8843225240707397,,,,,
5.13329600000003,-2.8563977208193774,9.956526749809072,138.595531323749,1.550764560699463,0.3848251700401306,1.2269235849380493,,,,,
5.14267000000001,-2.3423743648967554,8.198102776914212,138.74253320108807,1.7920324802398682,0.5438241362571716,1.4156653881072998,,,,,
5.152058000000011,-1.455094111332493,6.665526900301168,138.2495793064498,1.843102216720581,0.6266811490058899,1.5271110534667969,,,,,
5.161450000000002,-0.2416578242413868,5.418573411263655,137.16270479059148,1.825364589691162,0.6190787553787231,1.608445167541504,,,,,
5.170826000000034,1.1318195288696575,4.618326960418202,135.71493252896724,1.7075077295303345,0.5478559136390686,1.5415289402008057,,,,,
5.1802130000000375,2.450231148003613,4.402551722318923,134.0992698930089,1.429497480392456,0.4927116334438324,1.3594380617141724,,,,,
5.189600000000041,3.5630730432450766,4.7756472290973235,132.45838036395443,1.0643762350082397,0.4953659772872925,1.026937484741211,,,,,
5.198983999999996,4.478617046207468,5.54129854896667,130.7486080134353,0.5830968022346497,0.49128779768943787,0.6581279635429382,,,,,
5.208361000000025,5.294334052179256,6.3968912228647605,128.79217478663764,0.12361226230859756,0.4146045744419098,0.2992730736732483,,,,,
5.217760999999996,6.130267656713001,7.022668889277043,126.60991917346686,-0.3559809625148773,0.35566237568855286,-0.08841508626937866,,,,,
5.22714000000002,7.0834493427128375,7.1369258744548825,123.98458374099377,-0.8698180317878723,0.27487555146217346,-0.4527595639228821,,,,,
5.2363410000000385,8.20705597716134,6.530646723002394,120.87596414345578,-1.091628074645996,0,-0.6146531105041504,,,,,
5.245718000000011,9.460672746495291,5.165907667677375,117.40845753753008,-1.2012101411819458,-0.31937098503112793,-0.5285530090332031,,,,,
5.255118000000039,10.777606620521675,3.2933083684981437,113.63315255486712,-1.43681001663208,-0.5770840644836426,-0.37561899423599243,,,,,
5.264512000000025,12.172068965193118,1.2991960868225483,109.8546351484168,-1.591387152671814,-0.9464490413665771,-0.1276606321334839,,,,,
5.2738879999999995,13.646663070533966,-0.6013228662236789,106.58003242480625,-1.676770567893982,-1.3082950115203857,-0.03646504878997803,,,,,
5.283286000000032,15.141472772289225,-2.4309001041622427,104.0195016152217,-1.8868094682693481,-1.4929181337356567,-0.16482895612716675,,,,,
5.292660000000012,16.531618077102046,-4.360522795338678,102.21260688084999,-1.931894063949585,-1.52030611038208,-0.4222620129585266,,,,,
5.302036000000044,17.682327623316443,-6.654182597520585,101.2219508799313,-1.905125617980957,-1.4387261867523193,-0.7157597541809082,,,,,
5.311427000000037,18.480208725525262,-9.482704995074108,100.88893119156371,-1.830533742904663,-1.389898657798767,-1.0111163854599,,,,,
5.3208830000000376,18.978650830028258,-12.922616173194113,100.98186442450769,-1.5722174644470215,-1.2388038635253906,-1.281105399131775,,,,,
5.330277000000024,19.396538188433556,-16.963070188500424,101.21402106550629,-1.245300054550171,-1.0991802215576172,-1.3680058717727661,,,,,
5.339676999999995,19.89339685533269,-21.42006611020589,101.4235518458992,-0.8473378419876099,-1.1907693147659302,-1.3765592575073242,,,,,
5.349055000000021,20.513581911633143,-26.05220963805242,101.70790094882996,-0.37403133511543274,-1.3842694759368896,-1.153022289276123,,,,,
5.358339000000001,21.222082264346337,-30.59440469830935,102.2386510435732,0.17327910661697388,-1.5130430459976196,-0.9456546306610107,,,,,
5.3677319999999895,21.83951519673879,-34.87424771830688,103.29093935923542,0.4652366638183594,-1.5308058261871338,-1.019936203956604,,,,,
5.377103000000034,22.1325915695414,-38.79366028435349,105.09187054065822,0.8040696382522583,-1.490702748298645,-1.074571132659912,,,,,
5.3864920000000325,21.524380014021922,-42.310550411328556,107.93842143818108,1.2478796243667603,-1.3437001705169678,-1.2213361263275146,,,,,
5.395876000000044,19.39762717387414,-45.39764806142477,112.1622343183737,1.5703961849212646,-1.072568416595459,-1.4245991706848145,,,,,
5.4052690000000325,15.545230880006804,-47.98268891925725,117.73861147041507,1.7692992687225342,-0.6337136030197144,-1.5186545848846436,,,,,
5.414838000000032,10.352237904674961,-49.987916672403216,124.10559878192116,1.9722776412963867,-0.3004891276359558,-1.4674735069274902,,,,,
5.424209000000019,4.485944251989549,-51.36977405518379,130.67825799110273,2.1412153244018555,-0.060784656554460526,-1.3802670240402222,,,,,
5.43359700000002,-1.1405035182446934,-52.1736383769033,136.73675676857957,2.3282220363616943,0.11517467349767685,-1.1214256286621094,,,,,
5.442984000000024,-5.849934277392978,-52.516790268709535,141.69969131703238,2.392151355743408,0.19915136694908142,-0.863292932510376,,,,,
5.452365000000043,-9.554753104849466,-52.44819050814411,145.44691360767902,2.5578243732452393,0.16948756575584412,-0.6749808192253113,,,,,
5.461754000000042,-12.584410628041816,-51.949385111373786,148.14116803906006,2.6488044261932373,0.19260668754577637,-0.48055100440979004,,,,,
5.471123000000034,-15.156066453540982,-51.000395157858826,150.01290475224837,2.5837242603302,0.22943785786628723,-0.3424657881259918,,,,,
5.480524000000003,-17.25971934000414,-49.64640634842616,151.09689028418728,2.485107183456421,0.27532005310058594,-0.22235634922981262,,,,,
5.489903000000027,-18.83979596479849,-47.984399709510214,151.3406279209103,2.2872912883758545,0.40865814685821533,-0.06033897399902344,,,,,
5.499281999999994,-19.845565516361898,-46.175574095429205,150.78613290349142,2.0335562229156494,0.5954638123512268,0.16751718521118164,,,,,
5.50866400000001,-20.4167673320056,-44.38017895368919,149.51183375308804,1.7279126644134521,0.8139393925666809,0.48672521114349365,,,,,
5.527435000000025,-20.802206808474736,-41.20423507117588,145.0701590722435,0.8423588275909424,1.0875225067138672,1.323326826095581,,,,,
5.536822000000029,-20.2975967555781,-39.91644253049745,141.74778274473044,0.320925772190094,0.8506835103034973,1.5205504894256592,,,,,
5.546199999999999,-18.89317463456835,-38.76949139218667,137.5791991382437,-0.2321135699748993,0.36811378598213196,1.5105359554290771,,,,,
5.555593000000044,-16.55575264232369,-37.637801005707004,132.64125017589046,-0.8597768545150757,-0.22697663307189941,1.3839812278747559,,,,,
5.564969000000019,-13.601017407740478,-36.41132250482453,127.47639310458467,-1.5168594121932983,-0.8536083102226257,1.2334641218185425,,,,,
5.574175000000025,-10.564001890222908,-35.04523748806075,122.7061487618725,-2.088228940963745,-1.3224475383758545,0.9990589618682861,,,,,
5.583562000000029,-7.900751598615613,-33.65104373942943,118.93968914952126,-2.588347911834717,-1.4732866287231445,0.7065643668174744,,,,,
5.592947000000038,-5.759030039912814,-32.41382423251029,116.42542890301927,-2.971137523651123,-1.3997865915298462,0.3993297815322876,,,,,
5.602334000000042,-4.06910782717929,-31.478997743863694,115.0526806443226,-3.1207733154296875,-1.3085684776306152,0.09017431735992432,,,,,
5.611720999999989,-2.7565035297770217,-30.919156465262663,114.52913327475797,-3.0699596405029297,-1.2026554346084595,-0.24544405937194824,,,,,
5.62109700000002,-1.7324700029749418,-30.771346945709187,114.64205622539001,-2.939157009124756,-1.0678759813308716,-0.6121464967727661,,,,,
5.630484000000024,-0.8443903708039732,-31.065985580655525,115.18543459980549,-2.6485724449157715,-1.0612210035324097,-0.9016281366348267,,,,,
5.639953999999989,-0.02799975191945009,-31.781884246759354,116.06316877326202,-2.2417502403259277,-1.1537045240402222,-1.1440870761871338,,,,,
5.658714000000032,0.939937617739135,-34.18895220392444,119.07323280872379,-1.176546335220337,-1.3355611562728882,-1.380234718322754,,,,,
5.668040000000019,0.6752399737096253,-35.651510192396294,121.46666299395075,-0.5581957697868347,-1.2966759204864502,-1.4518107175827026,,,,,
5.677423000000033,-0.22896796446405104,-37.10085291605374,124.52166772665936,0,-1.1258007287979126,-1.551539659500122,,,,,
5.68679800000001,-1.6123218967415647,-38.4829912787375,127.98273659865879,0.5884605646133423,-0.9447031617164612,-1.6086788177490234,,,,,
5.696192999999994,-3.288937170275118,-39.817333578533166,131.58324159991466,1.1589292287826538,-0.7440543174743652,-1.6271815299987793,,,,,
5.705572000000018,-5.088795837307193,-41.12722399986029,135.09955374388989,1.6427143812179565,-0.5631958842277527,-1.5418317317962646,,,,,
5.715134000000035,-6.8635910426113265,-42.4047466173948,138.2932361234118,2.154344320297241,-0.41708192229270935,-1.3328745365142822,,,,,
5.724516999999992,-8.55544180273313,-43.565145042565426,141.08521557094713,2.5745813846588135,-0.3355543613433838,-1.0566802024841309,,,,,
5.733897000000013,-10.160105268855775,-44.43700561279588,143.5033072394299,2.847407817840576,-0.2607884407043457,-0.8392366170883179,,,,,
5.743294999999989,-11.683330879704469,-44.869047017833545,145.55326231776914,3.0284600257873535,-0.11268359422683716,-0.6171949505805969,,,,,
5.752668000000028,-13.108020449810267,-44.782956309149,147.2198595152994,3.038309335708618,0.08801192045211792,-0.45096373558044434,,,,,
5.762047999999993,-14.333580046280094,-44.18898253941248,148.3840394129397,2.910041093826294,0.2219228446483612,-0.3128804862499237,,,,,
5.771430000000009,-15.31147058277465,-43.18088388137733,148.92955518738728,2.660952091217041,0.38507020473480225,-0.21459805965423584,,,,,
5.780815000000018,-15.984003541896541,-41.91108494498354,148.75100302179726,2.253207206726074,0.5455464124679565,-0.09469062089920044,,,,,
5.790214999999989,-16.380643171437804,-40.518749515759396,147.89680836047376,1.9010944366455078,0.6904290318489075,0.11562085151672363,,,,,
5.799593000000016,-16.60847593579521,-39.08267410840805,146.5165230241077,1.5092098712921143,0.8479729294776917,0.38634181022644043,,,,,
5.808967999999993,-16.714601591316892,-37.659679321231586,144.68877946241594,1.0997282266616821,0.949675977230072,0.7816657423973083,,,,,
5.8183500000000095,-16.68227458858248,-36.285006225937174,142.45415200463253,0.6372396349906921,0.9948700666427612,1.0556360483169556,,,,,
5.827737000000013,-16.311514468467987,-35.038309191742194,139.8034178560206,0.12421739101409912,0.8892432451248169,1.159101128578186,,,,,
5.83711900000003,-15.403293129165995,-34.00667174460286,136.67276263710986,-0.34504434466362,0.5727609992027283,1.1342499256134033,,,,,
5.846510000000023,-13.98712241764173,-33.17149099128213,133.16725353075373,-0.7716140747070312,0.12740349769592285,1.1326959133148193,,,,,
5.855898000000025,-12.3238145145809,-32.377107413410386,129.61511274892263,-1.1959848403930664,-0.35947513580322266,1.200353980064392,,,,,
5.865105000000028,-10.760362003410693,-31.415188173873265,126.51157278504257,-1.6719276905059814,-0.686373233795166,1.1941051483154297,,,,,
5.8744800000000055,-9.443209150594102,-30.219023939888945,124.12835985393238,-2.134922981262207,-0.8491125702857971,1.0429866313934326,,,,,
5.883866000000012,-8.355749402196269,-28.874906849791003,122.5297422967851,-2.5810437202453613,-0.8389900922775269,0.737912654876709,,,,,
5.8932570000000055,-7.297998313297675,-27.620332571001782,121.5721314334449,-2.9663076400756836,-0.8285567164421082,0.2903807759284973,,,,,
5.902640000000019,-6.141465900460763,-26.697121831233844,121.09812087905213,-3.0498154163360596,-0.9929072856903076,-0.06379616260528564,,,,,
5.912024000000031,-5.114510989001847,-26.18165215671855,121.20364001326695,-2.9190280437469482,-1.1973414421081543,-0.301888108253479,,,,,
5.921401000000003,-4.455758478064811,-25.971711197965185,122.12931881231742,-2.6863770484924316,-1.3114418983459473,-0.5244424343109131,,,,,
5.930778000000032,-4.223130984266681,-25.926696576475752,123.86033048316247,-2.4367904663085938,-1.3153002262115479,-0.8317694664001465,,,,,
5.940174000000013,-4.376666979220998,-25.98962285808677,126.22828790384604,-2.0629940032958984,-1.3151296377182007,-1.2322454452514648,,,,,
5.949640000000045,-4.8860335095044745,-26.234192560835037,129.1393972390642,-1.591270923614502,-1.245836853981018,-1.5657165050506592,,,,,
5.959024999999997,-5.71545613826232,-26.777467807863463,132.39735625546004,-1.0231839418411255,-1.1781851053237915,-1.7689265012741089,,,,,
5.968318000000011,-6.8388258926534675,-27.637020451102675,135.87280436759548,-0.3152616620063782,-1.1723394393920898,-1.9005029201507568,,,,,
5.977711999999997,-8.216229133601379,-28.746913543065528,139.4742974784365,0.40771761536598206,-1.1725422143936157,-1.8361961841583252,,,,,
5.9871029999999905,-9.763951809774259,-29.996603428673527,143.08403462693963,1.1943988800048828,-1.1770728826522827,-1.6970252990722656,,,,,
5.996475000000032,-11.403429973110073,-31.229472804697004,146.62006424784627,1.9398449659347534,-1.104860544204712,-1.5097135305404663,,,,,
6.0058610000000385,-13.13575147036393,-32.238566019251586,150.06005833213055,2.5143704414367676,-0.9465278387069702,-1.2958513498306274,,,,,
6.015430000000038,-14.97622637046556,-32.8524598483161,153.26977911286477,2.983822822570801,-0.8025901913642883,-1.0372451543807983,,,,,
6.024817000000041,-16.902437744957442,-32.981925723129045,156.1025983130485,3.307666063308716,-0.6030406355857849,-0.7904152274131775,,,,,
6.034200999999996,-18.738278567962343,-32.65354431575761,158.44975911501228,3.4059348106384277,-0.42224809527397156,-0.5865159034729004,,,,,
6.043566999999996,-20.31249868775758,-31.984187518702853,160.06475019845698,3.384330987930298,-0.23919051885604858,-0.47557395696640015,,,,,
6.052972000000011,-21.531685845895375,-31.13762926453373,160.8567241819547,3.0721564292907715,-0.06284645199775696,-0.31259849667549133,,,,,
6.062343999999996,-22.36068776859026,-30.26929447336299,160.71405971583633,2.711622714996338,0.06357988715171814,-0.1133381724357605,,,,,
6.071733999999992,-22.87371304184607,-29.401942019051837,159.7609072479099,2.2818942070007324,0.23248964548110962,0.14377695322036743,,,,,
6.0811030000000414,-23.14404720124326,-28.500817536215973,158.27079713113676,1.7742278575897217,0.4176291823387146,0.45167940855026245,,,,,
6.09050400000001,-23.22463114385528,-27.553936912175278,156.23440395583017,1.2400593757629395,0.5914073586463928,0.7517381310462952,,,,,
6.0998800000000415,-23.179299139308775,-26.58069425801129,153.7713669896885,0.6432327032089233,0.7536247968673706,1.0042167901992798,,,,,
6.109270000000038,-22.925080346107674,-25.638707081803695,150.9600628523043,-0.026668787002563477,0.79475998878479,1.1738756895065308,,,,,
6.118653999999992,-22.36135925922221,-24.85777406010289,147.8189020830162,-0.7102293968200684,0.6755694150924683,1.223644733428955,,,,,
6.128033000000016,-21.456398544629437,-24.330285819614183,144.45649662839617,-1.4038463830947876,0.41845497488975525,1.1493396759033203,,,,,
6.137243000000012,-20.245940971181536,-24.04084333348595,141.00307451231154,-2.08390212059021,0.05543440580368042,1.0963826179504395,,,,,
6.146623000000034,-18.845383589176194,-23.88760764203931,137.75075410896142,-2.6746222972869873,-0.3402794301509857,0.9966304302215576,,,,,
6.156004999999993,-17.358799523998268,-23.764968184379104,135.05461881879324,-3.076728343963623,-0.7105134129524231,0.8322746157646179,,,,,
6.165390000000002,-15.987575527274847,-23.630842418059835,133.1961446513518,-3.205124855041504,-0.9337556958198547,0.5903583765029907,,,,,
6.174781999999993,-14.917908335264164,-23.479498460313188,132.44631878247202,-3.167567491531372,-0.9853488206863403,0.27172940969467163,,,,,
6.184163000000012,-14.201738922216387,-23.34341870784441,132.74710947832241,-2.9587199687957764,-0.9442415237426758,-0.09879916906356812,,,,,
6.193544000000031,-13.801031218676973,-23.28410839384689,133.87274979517468,-2.6288576126098633,-0.8408179879188538,-0.49969059228897095,,,,,
6.202947999999992,-13.634906870384825,-23.37297001333518,135.55525078022978,-2.263549566268921,-0.7432661652565002,-0.9035453796386719,,,,,
6.212335999999993,-13.609586721736388,-23.690997929251488,137.5042541670423,-1.7823463678359985,-0.7905417680740356,-1.257727026939392,,,,,
6.221717000000012,-13.743682856739403,-24.28501457025538,139.5525314207755,-1.1505862474441528,-0.9409847855567932,-1.4676023721694946,,,,,
6.231099000000029,-14.121439118215791,-25.157949685692394,141.82505406304577,-0.4431610703468323,-1.1028704643249512,-1.5353726148605347,,,,,
6.240468000000021,-14.79460269660439,-26.251099917377616,144.39755741172073,0.3987724483013153,-1.2227859497070312,-1.4468814134597778,,,,,
6.249851000000035,-15.816873126354409,-27.388494604458053,147.32737393048637,1.2631173133850098,-1.177341341972351,-1.3010609149932861,,,,,
6.259248000000014,-17.090379583778706,-28.385093642568094,150.4990722599372,2.033179998397827,-1.012209415435791,-1.1896075010299683,,,,,
6.268636000000015,-18.513288791754157,-29.109800012369355,153.65922482581777,2.6638107299804688,-0.7949672937393188,-1.1281161308288574,,,,,
6.278200000000027,-19.982969423186134,-29.55040315528236,156.52769860295743,3.1063106060028076,-0.5432974100112915,-1.0032408237457275,,,,,
6.287579999999991,-21.353119081963825,-29.793382508979235,158.81266113401608,3.3734660148620605,-0.3618503510951996,-0.8231436610221863,,,,,
6.296964000000003,-22.52049251692145,-29.86690446983871,160.3931187892581,3.515824794769287,-0.21661800146102905,-0.6739409565925598,,,,,
6.306353999999999,-23.39358754071365,-29.776274017586825,161.25729953301874,3.3434689044952393,-0.12483817338943481,-0.5174970030784607,,,,,
6.31573400000002,-23.912800840569183,-29.510939274045874,161.2141922309333,3.0461535453796387,-0.07912909984588623,-0.37296321988105774,,,,,
6.325119000000029,-24.175161544514463,-28.998195682876155,160.36404497097254,2.6518492698669434,0,-0.21965712308883667,,,,,
6.334499999999991,-24.3099133699183,-28.215229935692644,158.90054304708693,2.1599860191345215,0.18341000378131866,0,,,,,
6.3438730000000305,-24.368899658241542,-27.25198808526552,156.98189850416443,1.6436779499053955,0.42536431550979614,0.22060483694076538,,,,,
6.353268000000014,-24.365933200588334,-26.18846140910704,154.67467349841172,0.9677850008010864,0.6515375375747681,0.5584876537322998,,,,,
6.3626540000000205,-24.252874539730996,-25.123009127119563,151.91860898217283,0.20033076405525208,0.8184188604354858,0.8793306946754456,,,,,
6.372040000000027,-23.892686259587652,-24.16630147665892,148.69257763324288,-0.5955489873886108,0.8267780542373657,1.0758473873138428,,,,,
6.381427000000031,-23.16723969856482,-23.335436407054672,145.08271064713782,-1.4499403238296509,0.5410566926002502,1.054398536682129,,,,,
6.390623000000005,-22.06225227645287,-22.59729546980067,141.29786875735658,-2.237910747528076,0.07812663912773132,0.9189790487289429,,,,,
6.400019000000043,-20.796308295865256,-21.94655201810636,137.80307834257655,-2.7227208614349365,-0.42562490701675415,0.7828189134597778,,,,,
6.409396000000015,-19.724147834835737,-21.372038451887494,135.2606553582136,-3.0813539028167725,-0.7703021764755249,0.6642574071884155,,,,,
6.4187840000000165,-19.00490815457067,-20.89245665971174,133.9096026359219,-3.223362684249878,-0.8662359118461609,0.5804245471954346,,,,,
6.428155000000004,-18.607553321823488,-20.41485106960846,133.69751381401093,-3.134310722351074,-0.7782229781150818,0.46916550397872925,,,,,
6.43754899999999,-18.360764633270097,-19.864601337204594,134.3299141476894,-2.866166591644287,-0.6675498485565186,0.28882360458374023,,,,,
6.446946000000025,-18.119897296110924,-19.282183977147756,135.54530445778173,-2.462529182434082,-0.5946058034896851,-0.037486255168914795,,,,,
6.456319000000008,-17.88814914552309,-18.737246585741207,137.22394928285132,-2.0582571029663086,-0.5458011627197266,-0.4581223428249359,,,,,
6.465710999999999,-17.732979689494833,-18.307057824661484,139.19882652252895,-1.6553699970245361,-0.5438565015792847,-0.8615823984146118,,,,,
6.475080999999989,-17.687312262698125,-18.078756237119915,141.28871111187206,-1.2114087343215942,-0.671323299407959,-1.1526259183883667,,,,,
6.484472000000039,-17.820533328781295,-18.119155303492377,143.45084058878308,-0.6642988920211792,-0.8657052516937256,-1.298875331878662,,,,,
6.4938620000000356,-18.189062910752938,-18.40955419998268,145.78787036626335,-0.10059192776679993,-1.0602234601974487,-1.364040732383728,,,,,
6.503229000000033,-18.78681965292973,-18.87326186573834,148.29121995923566,0.5039355754852295,-1.2288126945495605,-1.2723209857940674,,,,,
6.512632999999994,-19.624998573231615,-19.362910281344075,150.95479057582895,1.2176132202148438,-1.3130611181259155,-1.125807285308838,,,,,
6.5220070000000305,-20.64516389715863,-19.72140947963405,153.75213308130998,1.8039047718048096,-1.2362959384918213,-1.0114387273788452,,,,,
6.531405000000007,-21.729197841088027,-19.897780959206933,156.4747528390308,2.1821365356445312,-1.0966123342514038,-0.8895970582962036,,,,,
6.540777999999989,-22.79553353470777,-19.92921589309199,158.9032874643513,2.553964853286743,-0.9894776344299316,-0.8510753512382507,,,,,
6.550168000000042,-23.785647824374415,-19.857979881468264,160.93462524076907,2.856473922729492,-0.8653173446655273,-0.7589073181152344,,,,,
6.55971500000004,-24.681310072066818,-19.712072372754957,162.53279547482637,2.9623260498046875,-0.730282723903656,-0.5264919996261597,,,,,
6.569098999999994,-25.476146930420892,-19.512799691467784,163.5838984633199,3.00635027885437,-0.5503244400024414,-0.2848426103591919,,,,,
6.578490000000045,-26.13033077307916,-19.187345988671858,164.0240223366886,2.775517463684082,-0.3302108347415924,0,,,,,
6.587871000000007,-26.621697061055325,-18.651385127590416,163.756892327056,2.452038049697876,-0.1261516511440277,0.2329028844833374,,,,,
6.597261000000003,-26.996958042342808,-17.88027198974473,162.92626414100505,2.1239500045776367,0.08845755457878113,0.532795250415802,,,,,
6.60663900000003,-27.309804656196928,-16.875304632083186,161.64549506487296,1.7002688646316528,0.2960526943206787,0.9004162549972534,,,,,
6.616033000000016,-27.532853341913626,-15.65414835062048,160.05065274659236,1.1304922103881836,0.49902647733688354,1.1991548538208008,,,,,
6.62541600000003,-27.50407712214583,-14.299290602795091,158.1289345828292,0.4386586546897888,0.6712435483932495,1.2793993949890137,,,,,
6.634810000000016,-27.087132278874854,-12.995990801469294,155.81404703950216,-0.25440168380737305,0.6725448966026306,1.226247787475586,,,,,
6.644181000000003,-26.32726889245549,-11.877666818372287,153.1548552244593,-0.8985340595245361,0.5496494770050049,1.0517289638519287,,,,,
6.653576000000044,-25.359396652037457,-10.937300447502905,150.37489854404876,-1.5590583086013794,0.40464651584625244,0.8141821026802063,,,,,
6.662778000000003,-24.299306414406136,-10.128177587680547,147.75423167210198,-2.1051547527313232,0.308214396238327,0.573133647441864,,,,,
6.672139000000016,-23.217088457922756,-9.416847680347816,145.62780048486758,-2.4757561683654785,0.24420341849327087,0.36557847261428833,,,,,
6.681547000000023,-22.15689066276504,-8.739249836277363,144.21679732940254,-2.8242223262786865,0.12729346752166748,0.2531101107597351,,,,,
6.690924999999993,-21.212392869960585,-7.990634410709662,143.52254332644554,-2.98746395111084,0,0,,,,,
6.700307000000009,-20.4567078579715,-7.075362540434747,143.60313999918202,-2.9765076637268066,-0.0935894250869751,-0.3525009751319885,,,,,
6.709694000000013,-19.99075819308149,-6.043155045771876,144.53508744646444,-2.737791061401367,-0.1892746388912201,-0.7098045349121094,,,,,
6.719091999999989,-19.835127985239403,-4.9978403811408505,146.4106165977297,-2.348996162414551,-0.269298791885376,-0.9736993312835693,,,,,
6.728456999999992,-19.948540387073514,-3.9881103040324395,149.14065736385197,-1.9054038524627686,-0.2799055278301239,-1.1368300914764404,,,,,
6.737854000000027,-20.239531711825848,-3.014496860853957,152.42891782530174,-1.37213933467865,-0.28064456582069397,-1.2768511772155762,,,,,
6.747228000000007,-20.58428979321642,-2.0933008768638652,155.97607753267422,-0.8461180329322815,-0.3889533281326294,-1.326910138130188,,,,,
6.756650000000036,-20.986723898119035,-1.303396110774103,159.59539943195634,-0.32311004400253296,-0.5349888205528259,-1.4062968492507935,,,,,
6.766008999999997,-21.43095584071036,-0.840904522680791,162.9219663651986,0.23688830435276031,-0.7739033699035645,-1.3689854145050049,,,,,
6.775390000000016,-21.89432852702645,-0.8050379825801428,165.8049542492933,0.7828541994094849,-1.0613808631896973,-1.2020407915115356,,,,,
6.784758000000011,-22.376377965356525,-1.091746984880877,168.28096777169503,1.3268510103225708,-1.368623971939087,-0.9074585437774658,,,,,
6.7941620000000285,-22.919895258526427,-1.4246151959791626,170.47790646254978,1.8344188928604126,-1.629052758216858,-0.6157690286636353,,,,,
6.803545000000042,-23.50965145347909,-1.5608492113706058,172.46594847870506,2.156562089920044,-1.7911527156829834,-0.3393523097038269,,,,,
6.813099000000022,-24.07264088065281,-1.42800417558596,174.2319686079536,2.4870598316192627,-1.8702245950698853,-0.0577734112739563,,,,,
6.822483000000034,-24.519303931878728,-1.0143962214510682,175.8101179090601,2.592608690261841,-1.769361972808838,0.1834370493888855,,,,,
6.831875000000025,-24.76329843249162,-0.3076749490675513,176.9979955929924,2.5402820110321045,-1.5729161500930786,0.42688703536987305,,,,,
6.841244000000017,-24.802962378419455,0.7614664577060108,177.6736309725764,2.4193735122680664,-1.3534506559371948,0.5524163842201233,,,,,
6.850638000000004,-24.720655452359836,2.2221909726755062,177.8937600791181,2.174262046813965,-1.078336477279663,0.5836495757102966,,,,,
6.86002400000001,-24.56200421759091,3.985959834476921,177.74388617383948,1.7901984453201294,-0.7026121616363525,0.5349679589271545,,,,,
6.8694169999999986,-24.31107712868964,5.863695868409745,177.24031441694694,1.275555968284607,-0.25903186202049255,0.5093724131584167,,,,,
6.87878900000004,-23.981321309870097,7.61957587220322,176.38604368147125,0.826528012752533,0.18665775656700134,0.5530173778533936,,,,,
6.888183000000026,-23.54304721568901,9.129349413189392,175.2252719179121,0.32336026430130005,0.5746860504150391,0.6686484217643738,,,,,
6.89756600000004,-23.028082928526022,10.420831280813417,173.68913716852933,-0.2078193575143814,0.9547061324119568,0.7377143502235413,,,,,
6.906959000000029,-22.46502561185061,11.637179734443427,171.8769144453332,-0.7769750356674194,1.248021125793457,0.6879544258117676,,,,,
6.916342000000043,-21.87225991024124,12.906527968924495,169.88629668441294,-1.2638238668441772,1.3364351987838745,0.5974887013435364,,,,,
6.925719000000015,-21.3090132175968,14.412621673523446,167.89777671384226,-1.5854942798614502,1.324781894683838,0.4296776056289673,,,,,
6.934923000000026,-20.74891964718078,16.35761839174908,166.19410715613486,-1.9075425863265991,1.3947384357452393,0.13433760404586792,,,,,
6.944301999999993,-20.123697498054234,18.76103858445676,165.0452059480666,-2.236725330352783,1.4254696369171143,-0.2329527735710144,,,,,
6.953705000000014,-19.523009247338134,21.428915599644753,164.4283773652675,-2.223745584487915,1.4449455738067627,-0.5913909077644348,,,,,
6.963089000000025,-19.19781572878357,24.015265236496624,164.20391900769368,-1.9481172561645508,1.4003124237060547,-1.0280781984329224,,,,,
6.972470000000044,-19.08137903051293,26.12804206503967,164.37203406400232,-1.9000792503356934,1.2548589706420898,-1.3308770656585693,,,,,
6.9818500000000085,-18.934408418597716,27.7814035801717,165.27876012822438,-1.837759017944336,1.0110256671905518,-1.505671739578247,,,,,
6.991232000000025,-18.789325580746706,28.98115082199964,166.89225225519579,-1.342805027961731,0.6682480573654175,-1.5011216402053833,,,,,
7.000622000000021,-18.819014702562427,29.70866713540227,168.9864691769426,-0.92742919921875,0.33043795824050903,-1.3560059070587158,,,,,
7.010006000000033,-19.08164124301669,30.094620046912752,171.40382498518642,-0.7061379551887512,0.059825628995895386,-1.1944036483764648,,,,,
7.019399000000021,-19.46259520069461,30.228714797229433,173.85370288769855,-0.38276636600494385,-0.23281601071357727,-1.1186844110488892,,,,,
7.028798999999992,-19.820394051802076,30.206947175709768,176.2385189962733,0,-0.6048936247825623,-0.9462506771087646,,,,,
7.038331000000028,-20.21110439698273,30.139085084038122,178.41012591573494,0.16561344265937805,-0.9251347184181213,-0.5853802561759949,,,,,
7.047542000000021,-20.835107840432546,30.09729637493894,-179.9468197518407,0.6356585025787354,-1.2236238718032837,-0.3445204794406891,,,,,
7.056925000000035,-21.59547586314122,30.112252389277504,-178.7859712006371,1.003104329109192,-1.4650208950042725,-0.16773611307144165,,,,,
7.066305,-22.451691211127315,30.14091084562479,-178.2340792283996,1.2089849710464478,-1.636377215385437,0.15917915105819702,,,,,
7.075680000000034,-23.320601190149272,29.980948196847773,-178.46706733676226,1.5249886512756348,-1.7630653381347656,0.5563230514526367,,,,,
7.0850750000000176,-23.942238335121463,29.575180725746872,-179.36069957382514,1.8472659587860107,-1.8228124380111694,0.7735476493835449,,,,,
7.094463000000019,-24.062318075859025,28.983989598018923,179.25491533106248,1.8702301979064941,-1.7612619400024414,0.9221814870834351,,,,,
7.1040290000000255,-23.76151771268985,28.175756181069662,177.25822823729465,1.8612589836120605,-1.590233325958252,1.043464183807373,,,,,
7.113407999999993,-23.07365906527051,27.122737481772162,174.7038941730533,1.8906077146530151,-1.3638259172439575,1.193428635597229,,,,,
7.122799000000043,-22.045843966164338,25.942373572405444,171.74937188357683,1.8031249046325684,-1.1301398277282715,1.280766248703003,,,,,
7.132171000000028,-20.798449804772073,24.859425146652967,168.51806645480966,1.5513237714767456,-0.8329214453697205,1.3094695806503296,,,,,
7.141556000000037,-19.479983297434213,24.14474556225323,165.11230718744648,1.1320059299468994,-0.5887424945831299,1.3769487142562866,,,,,
7.1509490000000255,-18.22991970709532,24.16422935810564,161.74897726518157,0.5808761715888977,-0.47001001238822937,1.2581632137298584,,,,,
7.160331000000042,-17.166776200617615,25.230971114534945,158.73087563932333,0,-0.31885361671447754,0.8122208714485168,,,,,
7.1697169999999915,-16.33162269126949,27.310340341504933,156.2698228927006,-0.6514004468917847,0.13150805234909058,0,,,,,
7.178927000000044,-15.602125824605523,29.95802088515882,154.28651015081908,-1.5114500522613525,0.7307766675949097,-0.9786791801452637,,,,,
7.188303000000019,-14.969808674537859,32.490834846973776,152.32485587911006,-2.2859275341033936,1.3561350107192993,-1.8213605880737305,,,,,
7.19769500000001,-14.530487750929447,34.290767909548144,149.71360023360836,-2.7906439304351807,1.6598154306411743,-2.417736530303955,,,,,
7.207076000000029,-14.077006163449084,35.03397789941544,146.4246082076102,-2.766554832458496,1.2593328952789307,-2.897268772125244,,,,,
7.2164600000000405,-13.412155589500806,34.612526021529824,143.14236367327584,-2.6813371181488037,0.6466901302337646,-2.8377315998077393,,,,,
7.225837000000013,-12.768800016183352,33.26336066828076,140.4517565847334,-2.5610599517822266,-0.05602547526359558,-2.5420329570770264,,,,,
7.235230999999999,-12.28693049478132,31.455148376776766,138.8147697136793,-2.123628854751587,-0.78495192527771,-2.189913034439087,,,,,
7.244618000000003,-11.917368828312917,29.557349213315177,138.62099151071033,-1.6792926788330078,-1.0857599973678589,-1.8661608695983887,,,,,
7.2540050000000065,-11.722506291021798,27.70415344435477,139.84269335977075,-1.2121162414550781,-0.9886389970779419,-1.731392502784729,,,,,
7.263391000000013,-11.700499227454666,25.83660964600656,142.0973284384467,-0.666839599609375,-0.8220270276069641,-1.6221282482147217,,,,,
7.272794000000033,-11.853631292861964,23.86779456634535,144.91058933146874,-0.07996547222137451,-0.6527379751205444,-1.4815616607666016,,,,,
7.282172000000003,-12.296772716785359,21.67813977509741,147.67743498133305,0.5545799732208252,-0.8203035593032837,-1.3810739517211914,,,,,
7.291538000000003,-13.108295854102789,19.179589359231596,150.1469994138599,1.1639788150787354,-0.9038084745407104,-1.1516865491867065,,,,,
7.300922000000014,-14.226360329764441,16.29731972189237,152.26483617345085,1.6765395402908325,-0.9419142603874207,-0.8510862588882446,,,,,
7.310311000000013,-15.429704222939632,13.073122316964227,153.97131936207526,2.080101251602173,-1.1367690563201904,-0.4358486533164978,,,,,
7.319692000000032,-16.50176846872627,9.776205145170488,155.34910361178413,2.4709603786468506,-1.3524457216262817,0.09576994180679321,,,,,
7.329072999999994,-17.345462684878193,6.7868319112579885,156.55696805308185,2.8412129878997803,-1.4746708869934082,0.6203497648239136,,,,,
7.338639000000001,-18.03264022645239,4.505048170348969,157.75874690092658,2.9762890338897705,-1.3750040531158447,0.948911190032959,,,,,
7.348013000000037,-18.748526836501863,3.1186205874357884,158.97248328692737,3.131242036819458,-1.1506315469741821,1.0074375867843628,,,,,
7.357412000000011,-19.619258991270236,2.547680476185442,160.06286509759812,3.1991257667541504,-0.862122654914856,1.0805237293243408,,,,,
7.366784999999993,-20.662036431786504,2.6078647231890675,160.8810568339023,3.1384429931640625,-0.609609842300415,1.1258682012557983,,,,,
7.376185000000021,-21.768491980657636,3.1207291543075586,161.3253060169066,2.8999667167663574,-0.3265644311904907,1.1657160520553589,,,,,
7.3855629999999906,-22.79308412884002,3.924465530989876,161.25314713965426,2.521859645843506,0,1.1369242668151855,,,,,
7.394954000000041,-23.58991833911814,4.828821735017029,160.59898850545508,1.9973812103271484,0.33531928062438965,1.1774077415466309,,,,,
7.413703999999996,-24.375598507107977,6.564738358438005,157.43694667439522,0.717735230922699,0.5944662690162659,1.385048508644104,,,,,
7.423099000000036,-24.43586492400029,7.589847058403455,154.98106358553838,0,0.5940179824829102,1.3172152042388916,,,,,
7.432482999999991,-24.25406662753237,8.943895545204944,152.01555498847821,-0.7366002202033997,0.5553527474403381,0.9666804671287537,,,,,
7.441857000000027,-23.749056857494267,10.62727507633112,148.6457913333087,-1.486496925354004,0.46462389826774597,0.4450613260269165,,,,,
7.451063000000033,-22.900486062069927,12.485576106680012,145.01864180044564,-2.214539051055908,0.33990535140037537,-0.18911701440811157,,,,,
7.460452000000032,-21.81130302623517,14.267717235061097,141.4870308618637,-2.7257165908813477,0.08875516057014465,-0.9427239298820496,,,,,
7.469853999999998,-20.690953005515045,15.727753474018181,138.30332954353372,-3.08393931388855,-0.31675606966018677,-1.5273157358169556,,,,,
7.479231000000027,-19.74481582650798,16.696159554635894,135.93623437568328,-3.170922040939331,-0.621185302734375,-1.9087634086608887,,,,,
7.488610999999992,-18.99556724619756,17.119632922327206,134.77303831954308,-3.0989468097686768,-0.8179212808609009,-2.092665195465088,,,,,
7.497996999999998,-18.463741134368757,17.102018001148934,134.84617365916347,-2.930880546569824,-0.8070175647735596,-2.0851073265075684,,,,,
7.507380000000012,-18.116852117863505,16.80625960267369,135.9174052193571,-2.6298422813415527,-0.6980956196784973,-2.0627336502075195,,,,,
7.516768000000013,-17.90715498408861,16.273757692525827,137.54769992960996,-2.051443099975586,-0.7286739349365234,-2.002650737762451,,,,,
7.526159000000007,-17.790319453880038,15.481292317827048,139.49913817967553,-1.393746256828308,-0.7540251612663269,-1.861673355102539,,,,,
7.544922000000042,-17.691825953081693,12.907652053519955,144.16402337937254,0.05794322490692139,-0.7808041572570801,-1.5196025371551514,,,,,
7.554304999999999,-17.713381995127463,11.054907322598748,146.59476228836027,0.8073572516441345,-0.9174925088882446,-1.0879050493240356,,,,,
7.563682000000028,-17.821312783552163,8.898204943360145,148.94897982649232,1.559627890586853,-0.9996243715286255,-0.575048565864563,,,,,
7.573073000000022,-18.084774549104424,6.606490395888479,151.30333400479,2.3622870445251465,-1.0631680488586426,0,,,,,
7.582461000000023,-18.532677947953772,4.495704010533417,153.79062184021853,2.904634475708008,-0.924123227596283,0.5636681914329529,,,,,
7.592018999999993,-19.14260581288123,2.872426099209309,156.28797457647235,3.229675054550171,-0.6994946002960205,1.040687084197998,,,,,
7.601410000000044,-19.84050869638518,1.9720322495827256,158.59617020870618,3.4147868156433105,-0.5599452257156372,1.3893814086914062,,,,,
7.610789000000011,-20.57938338303953,1.8736998502137554,160.62088563366103,3.4748034477233887,-0.3845946192741394,1.5074834823608398,,,,,
7.620181000000002,-21.194631961143084,2.4480152342425163,162.20156589807868,3.259363889694214,-0.10484036803245544,1.4426101446151733,,,,,
7.629550999999992,-21.496543090719115,3.5104645642153036,163.03920094080488,2.886261463165283,0.12101775407791138,1.337330937385559,,,,,
7.638946000000033,-21.423164091554234,5.018354642652086,163.05427176857336,2.3957128524780273,0.23306137323379517,1.1742289066314697,,,,,
7.648311000000035,-21.013411242494282,7.008678575548192,162.32298770380953,1.8168408870697021,0.35833945870399475,0.9957075119018555,,,,,
7.657708000000014,-20.4370480808947,9.419595840453429,160.96343374349863,1.1991956233978271,0.47378256916999817,0.6332712173461914,,,,,
7.667113000000029,-19.770441041240367,12.103643817424256,159.04056919554017,0.4019479751586914,0.7035582065582275,0.1000247597694397,,,,,
7.67632500000002,-19.029419725538514,14.851028876332705,156.51004962220324,-0.6077030897140503,0.8924594521522522,-0.46432822942733765,,,,,
7.685699,-18.32470028265252,17.410045532584068,153.4162780208872,-1.3456027507781982,0.7450481653213501,-1.1683493852615356,,,,,
7.695073000000036,-17.776204219634113,19.566313955246475,150.07557897765366,-2.048746109008789,0.4718843698501587,-1.7949484586715698,,,,,
7.704455999999993,-17.60815128388403,21.127183345041715,147.05715088152766,-2.518524646759033,-0.07748976349830627,-2.253532648086548,,,,,
7.713843999999995,-17.849505689347172,21.986501282639523,145.04133989417193,-2.82470440864563,-0.5180520415306091,-2.49938702583313,,,,,
7.723239000000035,-18.522469929390436,22.072088285058218,144.34281118419938,-2.920431613922119,-0.7462711334228516,-2.5728049278259277,,,,,
7.732613000000015,-19.461366239124118,21.46819587736796,144.88254520056304,-2.7882115840911865,-0.776237964630127,-2.28070068359375,,,,,
7.741992000000039,-20.437416833601937,20.359985033194153,146.3033870741258,-2.357074499130249,-0.7843015193939209,-1.7896133661270142,,,,,
7.751378000000045,-21.314997130203878,18.942405458237943,148.2269589921259,-1.7064458131790161,-0.9035245776176453,-1.3686633110046387,,,,,
7.760759000000007,-22.025057897320544,17.378024469233036,150.49475358556182,-0.8644800186157227,-0.9560524225234985,-0.9452232718467712,,,,,
7.770317000000034,-22.58686987170568,15.76040912534457,153.0061266264629,-0.051690906286239624,-0.9447908997535706,-0.5399167537689209,,,,,
7.7797030000000404,-23.036791894142823,14.065809524044276,155.6225167881579,0.7498186826705933,-0.9321624040603638,-0.16481482982635498,,,,,
7.7890859999999975,-23.49530479335572,12.26456598628267,158.3118285285973,1.481465220451355,-0.9111968278884888,0.35530924797058105,,,,,
7.798477999999989,-24.10291929988337,10.408006966967106,160.79917764076018,2.0638444423675537,-0.9059464931488037,0.8821812868118286,,,,,
7.807867000000044,-24.809198984819268,8.661934590284845,163.0957741539512,2.469576597213745,-0.8659524321556091,1.3054704666137695,,,,,
7.817253999999991,-25.46313640655356,7.2596801094695005,165.0400528984399,2.709347724914551,-0.7730287909507751,1.6456310749053955,,,,,
7.826613000000009,-25.87322204782127,6.449026369952836,166.4822154046269,2.70676851272583,-0.638036847114563,1.8026149272918701,,,,,
7.836005,-25.873350885271392,6.3746298691227645,167.23836923166607,2.5959222316741943,-0.5027955770492554,1.779549479484558,,,,,
7.8454020000000355,-25.430874065273397,7.091974081580753,167.2148209947848,2.448047637939453,-0.42592012882232666,1.5589289665222168,,,,,
7.854771000000028,-24.63890402331165,8.557785898111316,166.5273322465057,2.2637953758239746,-0.3880718946456909,1.1985864639282227,,,,,
7.86415199999999,-23.649173603032203,10.666348498878252,165.35425673883603,1.9955652952194214,-0.35244354605674744,0.8012160658836365,,,,,
7.873549000000025,-22.615446692991252,13.277382260191303,163.85743323608955,1.676336407661438,-0.26917028427124023,0.41696786880493164,,,,,
7.882927999999993,-21.628871729528917,16.235078342507048,162.17053514395724,1.1587047576904297,-0.08702042698860168,0,,,,,
7.892336999999998,-20.6762275786503,19.321404190524706,160.26024536106883,0.5363075733184814,0.216561421751976,-0.3229210376739502,,,,,
7.901708000000042,-19.791581495400095,22.334070718856886,157.82058825037743,0.04425373673439026,0.28147321939468384,-0.7737274765968323,,,,,
7.910939000000042,-18.920092917685935,25.081030203414493,154.87687926667326,-0.6216499209403992,0.31465399265289307,-1.2320538759231567,,,,,
7.929676000000029,-17.45528094040629,29.22783864670576,148.25395471569408,-1.7870272397994995,0.06217512488365173,-2.256734848022461,,,,,
7.939069000000018,-17.043990955123512,30.366318115554364,145.23702929222446,-2.1169965267181396,-0.323437362909317,-2.5680606365203857,,,,,
7.948440000000005,-16.970643340495684,30.797851012588694,143.09508170064078,-2.2410528659820557,-0.6767280101776123,-2.618154764175415,,,,,
7.957832999999994,-17.184341597165016,30.65769832292369,142.3366414492403,-2.215827465057373,-0.7935882210731506,-2.4537079334259033,,,,,
7.967209000000025,-17.608592560354545,30.143018754864435,142.90954655758748,-2.087423086166382,-0.6712110042572021,-2.2541041374206543,,,,,
7.976592000000039,-18.213898190036794,29.34765951176894,144.3757327532955,-1.7464072704315186,-0.5098174810409546,-1.9933404922485352,,,,,
7.985989000000018,-18.939290360006833,28.27475661650045,146.33475123890452,-1.2833542823791504,-0.4412841200828552,-1.7153202295303345,,,,,
7.995367000000044,-19.750531505665098,26.901901936951425,148.5194831387741,-0.7526618242263794,-0.4128373861312866,-1.383936882019043,,,,,
8.004764000000023,-20.603308954088277,25.25230051635203,150.84692994125137,-0.2280564308166504,-0.41178590059280396,-1.0430164337158203,,,,,
8.014321999999993,-21.474656527482,23.34485658163208,153.2462509913578,0.33110761642456055,-0.4737218916416168,-0.6433455944061279,,,,,
8.023709999999994,-22.37545960961364,21.195941393760936,155.64897542724188,0.9486144781112671,-0.6423130631446838,-0.1447981595993042,,,,,
8.03308400000003,-23.310603151837206,18.861322963954173,158.0492577272034,1.6015875339508057,-0.8277280330657959,0.44658219814300537,,,,,
8.042485,-24.283829470267577,16.481350015555,160.4467078992177,2.1610329151153564,-0.9266639947891235,1.0869555473327637,,,,,
8.051851999999997,-25.23692810000174,14.321184471282667,162.7416785834891,2.467507839202881,-0.8554509878158569,1.6523678302764893,,,,,
8.061255000000017,-26.038492651422235,12.656183072367826,164.69260840555648,2.597607135772705,-0.7280153036117554,2.0498626232147217,,,,,
8.070623000000012,-26.54065139081311,11.693373777384732,166.11106255424178,2.6770734786987305,-0.6177492141723633,2.2878916263580322,,,,,
8.08001999999999,-26.67248099027263,11.524353912927825,166.8972581456027,2.6205039024353027,-0.47980424761772156,2.3845062255859375,,,,,
8.089382,-26.456953007653897,12.261593134507384,167.0022649321861,2.425694704055786,-0.3337342143058777,2.303004264831543,,,,,
8.098756000000037,-25.91941277707343,14.015507174531374,166.39263416403315,2.093651294708252,-0.19250211119651794,1.968008041381836,,,,,
8.10816299999999,-25.11404146722579,16.65774497284799,165.09662056157794,1.6959917545318604,-0.038941532373428345,1.380500078201294,,,,,
8.117542000000014,-24.114079346118732,19.82502853129695,163.20328636168753,1.1109132766723633,0.16497766971588135,0.7146672010421753,,,,,
8.12693999999999,-22.990384892987098,23.11716685532413,160.72208949131146,0.49020397663116455,0.3074803650379181,0.09713292121887207,,,,,
8.136304999999993,-21.78109810487353,26.181014687339896,157.67846518197132,-0.08510932326316833,0.3437224328517914,-0.5546969175338745,,,,,
8.145514999999989,-20.569432965228128,28.83935763989097,154.51871586664234,-0.7256990671157837,0.29482996463775635,-1.1693018674850464,,,,,
8.154909000000032,-19.505122882837522,31.05622111227797,151.2789156079216,-1.2982724905014038,0.14645901322364807,-1.734464168548584,,,,,
8.164279000000022,-18.70289367653533,32.81715043520492,148.43156018254078,-1.8634041547775269,0,-2.1119277477264404,,,,,
8.173674000000005,-18.267057499624087,34.0960843465758,146.3414252770675,-2.2852020263671875,-0.18232330679893494,-2.348221778869629,,,,,
8.183060000000012,-18.20840337369447,34.93815164537676,145.27974290112024,-2.567600727081299,-0.24111858010292053,-2.6116604804992676,,,,,
8.192444000000023,-18.419056293728367,35.314056360266214,145.25814238539505,-2.684235095977783,-0.17137402296066284,-2.747920036315918,,,,,
8.201831000000027,-18.75914250678621,35.13344459138656,146.09067852660283,-2.494781970977783,-0.16497865319252014,-2.7903096675872803,,,,,
8.211207000000002,-19.05809879789491,34.270037641101176,147.48703820509272,-2.0950546264648438,-0.3108847141265869,-2.6130590438842773,,,,,
8.220596999999998,-19.32704966266178,32.77588002687651,149.29640300468637,-1.5951216220855713,-0.502047061920166,-2.3025612831115723,,,,,
8.22997700000002,-19.634658490650644,30.828692784642506,151.47397221864958,-1.0079023838043213,-0.6406140327453613,-1.9497263431549072,,,,,
8.239360000000033,-20.053040848347695,28.578777457500347,153.9822696494733,-0.42297983169555664,-0.7544368505477905,-1.5937741994857788,,,,,
8.248752000000025,-20.652193665368475,26.166505428462834,156.70023405074488,0.17818349599838257,-0.8675888180732727,-1.1468000411987305,,,,,
8.258134000000041,-21.49054337921618,23.71190133169188,159.6011355897572,0.7917970418930054,-1.0522137880325317,-0.6572208404541016,,,,,
8.267522000000042,-22.57977292260446,21.323725737346162,162.70096854017245,1.3752529621124268,-1.2883474826812744,-0.0444483757019043,,,,,
8.277084000000002,-23.87632648976754,19.209970122016642,165.91848918234436,1.93893563747406,-1.5297648906707764,0.5790165662765503,,,,,
8.286466000000019,-25.23640384697485,17.591528522121347,169.18162049632642,2.439174175262451,-1.708095669746399,1.2610268592834473,,,,,
8.29585400000002,-26.49144048604945,16.742967070406177,172.42471090174487,2.7593042850494385,-1.762510061264038,1.7634947299957275,,,,,
8.305240000000026,-27.49237867099127,16.764033109886633,175.54371604596932,2.879460334777832,-1.617356538772583,2.0622730255126953,,,,,
8.31462300000004,-28.076965220718332,17.58843313395272,178.17713556369637,2.872222661972046,-1.4618732929229736,2.078627824783325,,,,,
8.324007999999992,-28.07229720951267,19.04517822050878,-179.73279078474363,2.780702590942383,-1.230973720550537,2.011709213256836,,,,,
8.333385000000021,-27.58967006616713,21.013064539635785,-178.35123662762933,2.6353368759155273,-0.9765264391899109,1.6921886205673218,,,,,
8.34259400000002,-26.757593260083116,23.321004598665645,-177.73058993424468,2.349825382232666,-0.7211724519729614,1.3804152011871338,,,,,
8.35199,-25.72305959529632,25.810138855336564,-177.84862338260655,1.916704773902893,-0.5098861455917358,1.136813759803772,,,,,
8.36154700000003,-24.61527014762582,28.416053118688996,-178.6324767890836,1.4628400802612305,-0.3578595221042633,0.8925414681434631,,,,,
8.370920000000012,-23.471229005966578,31.139558931900236,-179.8896702456759,1.0204850435256958,-0.23397007584571838,0.6203376650810242,,,,,
8.380333000000007,-22.19925280738414,34.04787323570292,178.67706078970852,0.5035091042518616,0,0.2854524254798889,,,,,
8.389696000000015,-20.6768924220953,37.2028778776569,177.21975813727138,-0.06320220232009888,0.3522423207759857,-0.2747744917869568,,,,,
8.398903000000018,-18.83209545025774,40.516762141563504,175.692331631512,-0.6259759068489075,0.8204997777938843,-0.941818356513977,,,,,
8.408284000000037,-16.831586852526883,43.75045510003789,174.01446603112015,-1.0172284841537476,1.1368519067764282,-1.6818244457244873,,,,,
