timestamp,Roll,Pitch,Yaw,Acc X,Acc Y,Acc Z,Gyro X,Gyro Y,Gyro Z,Acc Magnitude,Gyro Magnitude
0.0,26.12075956517667,-41.67627425697988,-163.03721674344862,-1.7270607948303223,1.7937148809432983,-3.82310152053833,,,,,
0.009371999999984837,25.366525154940383,-40.91022724640438,-162.17884282720217,-1.7419031858444214,1.685331106185913,-3.437136650085449,,,,,
0.018754999999998745,23.98807578129761,-39.521232586836014,-160.21390188767285,-1.817819356918335,1.3516926765441895,-2.911736488342285,,,,,
0.02815299999997478,22.108969345084052,-37.7234684319047,-157.51645449702355,-1.9206740856170654,0.8032280206680298,-2.2856218814849854,,,,,
0.03752399999996214,19.788000006802786,-35.56765888598387,-154.37287683615216,-1.9370906352996826,0.16528290510177612,-1.5454597473144531,,,,,
0.0469229999999925,17.16110512563214,-33.011724010358016,-151.02706080877462,-1.894624948501587,-0.49215883016586304,-0.6797086596488953,,,,,
0.056177999999988515,14.480121481623298,-30.02138841924705,-147.6487240192147,-1.7601009607315063,-1.0853837728500366,0.25698500871658325,,,,,
0.06559899999996333,12.109579262756116,-26.66164239539675,-144.45669249612948,-1.5079299211502075,-1.6175620555877686,1.2717088460922241,,,,,
0.07515799999998762,10.374310371924812,-23.097272177971348,-141.69419387745427,-1.1318618059158325,-1.9936927556991577,2.2886712551116943,,,,,
0.084541999999999,9.424133011060999,-19.68548017029858,-139.56920155201237,-0.6196565628051758,-2.1735172271728516,3.0900774002075195,,,,,
0.0939279999999485,9.133074045325257,-16.883292415428933,-138.16622802761918,-0.12035852670669556,-2.223936080932617,3.612178087234497,,,,,
0.10331199999995988,9.232496174844814,-15.050334665394777,-137.53150601052175,0.3234894573688507,-2.1828231811523438,3.7935893535614014,,,,,
0.11269799999996621,9.476082648887395,-14.275235829100527,-137.7045086129745,0.7318570017814636,-1.998582124710083,3.6239826679229736,,,,,
0.12207899999998517,9.743444677600587,-14.436660782286578,-138.69497521700524,1.1158676147460938,-1.6191105842590332,3.151578187942505,,,,,
0.13147099999997636,10.09959995745519,-15.341768915567895,-140.52534911645014,1.3682688474655151,-1.088992714881897,2.5366077423095703,,,,,
0.1408569999999827,10.718596517740314,-16.808567414851108,-143.1940477784517,1.4246777296066284,-0.4132574796676636,1.8405392169952393,,,,,
0.15021999999999025,11.775273718740214,-18.711149182954358,-146.5393937048297,1.3086309432983398,0.4437940716743469,1.0325939655303955,,,,,
0.15961099999998396,13.271237142773542,-20.986510470318876,-150.31177446341147,1.0970635414123535,1.2777245044708252,0.1760956048965454,,,,,
0.16881799999998748,14.941113184810044,-23.554917420554144,-154.14310915733282,0.7408233880996704,1.9145143032073975,-0.6502230763435364,,,,,
0.1782049999999913,16.43403205654925,-26.225172018107553,-157.6470021648185,0.31376275420188904,2.318211793899536,-1.3876962661743164,,,,,
0.18758899999994583,17.583551862584525,-28.669965806609742,-160.4668463379225,-0.09229728579521179,2.5607028007507324,-1.963435411453247,,,,,
0.1969769999999471,18.54067716698427,-30.63281645786094,-162.45082922642058,-0.49856036901474,2.6521973609924316,-2.4344828128814697,,,,,
0.20635199999998122,19.479278946434107,-32.046012905936266,-163.6766793752719,-0.8399984836578369,2.6365604400634766,-2.8477253913879395,,,,,
0.21573099999994838,20.33726595450927,-32.96583726986794,-164.24748631643908,-1.1822054386138916,2.4824445247650146,-3.069065570831299,,,,,
0.2251229999999964,20.71771721951028,-33.42482002316716,-164.13953271883562,-1.5288008451461792,2.2735748291015625,-3.1227893829345703,,,,,
0.2345449999999687,20.18421382590497,-33.35494423805012,-163.16635378859243,-1.7461626529693604,2.091280698776245,-3.0644028186798096,,,,,
0.25330699999994977,16.532447853550774,-31.483892808835854,-158.34038307601872,-2.3974051475524902,1.2196221351623535,-2.4337830543518066,,,,,
0.2627399999999511,14.073091062884364,-29.59636797776106,-154.6461299783868,-2.6081526279449463,0.3827044367790222,-1.7228007316589355,,,,,
0.27204399999999396,11.579821619443518,-26.94541244575989,-150.3156769289628,-2.6232826709747314,-0.5590948462486267,-0.76080721616745,,,,,
0.2814279999999485,9.362429672373478,-23.555284730285038,-145.71304950388372,-2.5016982555389404,-1.4574533700942993,0.3997184634208679,,,,,
0.2908199999999965,7.606236254130452,-19.67230118756936,-141.33484713302923,-2.2417960166931152,-2.2315800189971924,1.6674494743347168,,,,,
0.3003779999999665,6.2555065162937264,-15.751190707373597,-137.5441672673175,-1.8181796073913574,-2.801316022872925,2.8762779235839844,,,,,
0.3097519999999463,5.2895436006946435,-12.332693227971815,-134.52614042318984,-1.1617743968963623,-3.0749144554138184,3.6466450691223145,,,,,
0.3191449999999918,4.696126682150668,-9.875869637766359,-132.36973481073,-0.5206802487373352,-3.2277708053588867,4.000606060028076,,,,,
0.32852399999995896,4.417810175644929,-8.60494362874924,-131.09421920073612,-0.03274647146463394,-3.278418779373169,4.050354480743408,,,,,
0.3380499999999529,4.337525507468671,-8.453757651064027,-130.75154822855734,0.40393906831741333,-3.126762866973877,3.716310501098633,,,,,
0.3472899999999868,4.408915523272608,-9.192118855516505,-131.42618512285512,0.7567166090011597,-2.7691597938537598,3.225739002227783,,,,,
0.3566809999999805,4.683640936052512,-10.546870090966692,-133.1201637484829,1.032810091972351,-2.206979274749756,2.5664737224578857,,,,,
0.3660509999999704,5.357163213210627,-12.325142331454048,-135.66595371019284,1.178314208984375,-1.514709234237671,1.8784559965133667,,,,,
0.3754369999999767,6.585817967022137,-14.395877133185975,-138.97085993560907,1.0296927690505981,-0.7845313549041748,1.2494075298309326,,,,,
0.384824999999978,8.289191638333534,-16.69564298913355,-142.83430422013794,0.6967607736587524,-0.04878959059715271,0.6281594038009644,,,,,
0.3942019999999502,10.147904822593297,-19.24189343986667,-147.05641597586035,0.3790148198604584,0.6537350416183472,0,,,,,
0.40359099999994896,11.8857943800597,-22.069206058689325,-151.47036609331354,0.03589710593223572,1.2379909753799438,-0.5267074108123779,,,,,
0.4128019999999992,13.51907306012842,-25.061701957316952,-155.75839018365448,-0.3567432463169098,1.6911935806274414,-1.0642378330230713,,,,,
0.42218299999996134,15.190297238965776,-27.930027892596083,-159.80789885010867,-0.8158547878265381,2.0218324661254883,-1.5887950658798218,,,,,
0.43156499999997777,17.020724289573202,-30.375962117107825,-163.37063672610302,-1.2362141609191895,2.26944637298584,-2.114229202270508,,,,,
0.44110299999999825,19.071057683640014,-32.240884428434455,-166.31765609883757,-1.483378529548645,2.4566800594329834,-2.631336212158203,,,,,
0.45032999999995127,21.1973862016006,-33.486406187544965,-168.6580964551972,-1.7578380107879639,2.5222439765930176,-3.0648374557495117,,,,,
0.4597079999999778,22.89823912979406,-34.099713070756415,-170.215894116307,-2.0344018936157227,2.4718456268310547,-3.2257392406463623,,,,,
0.46901299999996127,23.59621508739399,-34.07381212080703,-170.66879363993434,-2.1350436210632324,2.390251636505127,-3.123901844024658,,,,,
0.47848099999998794,23.199591269000873,-33.44513402281558,-169.8957898945677,-2.1671571731567383,2.1883959770202637,-2.7901835441589355,,,,,
0.4878749999999741,22.001712166547595,-32.34510502780252,-167.96595762182176,-2.2754762172698975,1.6152386665344238,-2.2631676197052,,,,,
0.4972879999999691,20.28500785954348,-30.8769790545347,-165.04093181770702,-2.2634148597717285,0.7660390138626099,-1.637563943862915,,,,,
0.506640999999945,18.26086566185109,-28.987656000980223,-161.3898030804534,-2.103323221206665,-0.20284417271614075,-0.8694643974304199,,,,,
0.516021999999964,16.16947891155081,-26.525460153221154,-157.29626728437904,-1.8942530155181885,-1.133912205696106,0.1542375087738037,,,,,
0.5253929999999514,14.299455479072352,-23.433851117982414,-153.12137432130802,-1.5669430494308472,-1.8684965372085571,1.3686413764953613,,,,,
0.534973999999977,12.915676881501216,-19.938867658813844,-149.34900547481408,-1.1591535806655884,-2.3673248291015625,2.529008388519287,,,,,
0.5443559999999934,12.176821158240298,-16.58639279852003,-146.36153639844275,-0.5970523357391357,-2.613119125366211,3.3958816528320312,,,,,
0.5537279999999782,12.018690544185098,-13.9810689955643,-144.33367818194947,0.0411917120218277,-2.6569485664367676,3.898444652557373,,,,,
0.5631129999999871,12.162747383293318,-12.457616220003288,-143.2540215012975,0.6194919943809509,-2.6452431678771973,4.126275539398193,,,,,
0.5724899999999593,12.39334872818092,-12.02408022288482,-143.07711998702564,1.1061025857925415,-2.526695489883423,3.9845123291015625,,,,,
0.5818899999999871,12.676731317429565,-12.529854973435542,-143.89961533988017,1.3997929096221924,-2.242841958999634,3.5442895889282227,,,,,
0.5912669999999594,13.15161907964136,-13.796052324265805,-145.86311671114524,1.4863663911819458,-1.7371832132339478,2.881218433380127,,,,,
0.6006609999999455,14.140665852562329,-15.631437957764502,-148.9795600398079,1.4014604091644287,-1.0236345529556274,2.0456509590148926,,,,,
0.6100349999999821,15.827186733681096,-17.862640582050837,-152.95774401082218,1.16457998752594,-0.10831238329410553,1.1470671892166138,,,,,
0.6194169999999986,18.06290703596371,-20.40590617131439,-157.6749777756152,0.8959707617759705,0.8295972347259521,0.186451256275177,,,,,
0.6287989999999581,20.551705615183348,-23.242985375730164,-162.79042924082992,0.4910835027694702,1.5730715990066528,-0.721277117729187,,,,,
0.6379999999999768,23.082840628129034,-26.21065961355615,-167.87183766460035,-0.09373447299003601,2.1485161781311035,-1.5734467506408691,,,,,
0.6473809999999958,25.529714791986276,-28.960519563563032,-172.58347312525012,-0.7794530391693115,2.6167898178100586,-2.35111927986145,,,,,
0.6567749999999819,27.874138389485683,-31.09391486994942,-176.51689362842603,-1.193061113357544,2.939267635345459,-2.9898061752319336,,,,,
0.6661629999999832,30.226274322326148,-32.468387804223596,-179.30063990854532,-1.5811610221862793,3.021526336669922,-3.316108226776123,,,,,
0.6755289999999832,32.490934010869,-33.16375870092251,179.117632028994,-1.9354009628295898,2.871169090270996,-3.4735233783721924,,,,,
0.6849299999999516,34.34038340247208,-33.32089694776658,178.59357554407697,-2.230982780456543,2.5788676738739014,-3.4103095531463623,,,,,
0.6943019999999933,35.31574061376607,-33.06016088180259,179.22996526362763,-2.470442295074463,2.214635133743286,-3.076526403427124,,,,,
0.7038369999999645,35.22808711516158,-32.43840665755752,-178.93573829960732,-2.4437475204467773,1.8687437772750854,-2.626270294189453,,,,,
0.7130759999999441,34.236901030346836,-31.55113972454682,-175.9270440424715,-2.425246000289917,1.316390037536621,-2.011120080947876,,,,,
0.7224579999999605,32.520165318367646,-30.490737897068005,-171.79378679441237,-2.4337854385375977,0.4766314625740051,-1.2487499713897705,,,,,
0.7318349999999896,30.277426745627352,-29.224600878214993,-166.80384632810018,-2.222348690032959,-0.49345049262046814,-0.3225153088569641,,,,,
0.7411359999999831,27.779240308353877,-27.579239212774077,-161.3383519172016,-1.8811089992523193,-1.4442555904388428,0.7705565690994263,,,,,
0.7505999999999631,25.317592173077276,-25.423029662788295,-155.91922678648527,-1.5204716920852661,-2.275764226913452,1.8719815015792847,,,,,
0.7599959999999442,23.15797513418357,-22.792629209128055,-151.0699418220776,-1.1445339918136597,-2.788654327392578,2.884842872619629,,,,,
0.769553999999971,21.60781781049377,-20.034688806683004,-147.28139239088947,-0.5473094582557678,-2.9126064777374268,3.593691110610962,,,,,
0.7789419999999723,20.860748556700184,-17.70877551835614,-144.58841944626633,0.033269017934799194,-2.8048481941223145,4.045953273773193,,,,,
0.7883139999999571,20.832975977455202,-16.27827071636556,-142.9018085636534,0.4868296682834625,-2.6345038414001465,4.188053131103516,,,,,
0.7977029999999559,21.282087818304177,-15.96950060332214,-142.19348358978786,0.8192107677459717,-2.4815168380737305,3.8775296211242676,,,,,
0.8072469999999612,21.972225899140337,-16.70566226365961,-142.5191491175582,1.0279450416564941,-2.260105609893799,3.2541656494140625,,,,,
0.8164749999999685,22.793959325706066,-18.171794750057366,-143.99357633139073,1.1982446908950806,-1.8267322778701782,2.388066530227661,,,,,
0.8258689999999547,23.927765783210685,-20.067992607467104,-146.71579650187496,1.2065045833587646,-1.2161760330200195,1.3393940925598145,,,,,
0.8352399999999989,25.630408374998225,-22.214113811039898,-150.6563134448401,0.9395263195037842,-0.4565824866294861,0.23648029565811157,,,,,
0.8446379999999749,27.893544988804187,-24.467212991303892,-155.45708226329054,0.4395781457424164,0.2844613790512085,-0.7910251021385193,,,,,
0.8538359999999443,30.35220308611017,-26.6023248814672,-160.65814752129722,-0.21941718459129333,0.9072562456130981,-1.677791953086853,,,,,
0.8632109999999784,32.48931428483256,-28.39049576752712,-165.63303547317616,-0.808788537979126,1.4067449569702148,-2.5620322227478027,,,,,
0.8725919999999974,33.896873904362224,-29.741820437662234,-169.81925785376956,-1.3744990825653076,1.7715420722961426,-3.237553834915161,,,,,
0.8819939999999633,34.38638664186432,-30.580044681561702,-172.85375652457415,-1.9395642280578613,2.05283784866333,-3.5933241844177246,,,,,
0.8913639999999532,34.04889045304052,-30.788021788381702,-174.50193115143077,-2.3118579387664795,2.2725446224212646,-3.6109890937805176,,,,,
0.9007479999999646,33.03837169604816,-30.310589734566996,-174.57237477003164,-2.473529815673828,2.2853033542633057,-3.344752073287964,,,,,
0.9101279999999861,31.627152836354984,-29.206402252313257,-173.21256385178577,-2.543663740158081,2.0283894538879395,-2.797701358795166,,,,,
0.9195209999999747,30.05176106001073,-27.618384154329036,-170.8283814430537,-2.5117225646972656,1.5587832927703857,-2.130655527114868,,,,,
0.9288099999999986,28.327365225408457,-25.72351402950626,-167.69745298902797,-2.412142515182495,0.8896234035491943,-1.3171236515045166,,,,,
0.9382779999999684,26.370791812405116,-23.58526387394151,-164.00092427624287,-2.123978614807129,0.1309414505958557,-0.44264814257621765,,,,,
0.9476629999999773,24.204254398953736,-21.171135544276247,-159.86604790723888,-1.6790035963058472,-0.632422924041748,0.5468629002571106,,,,,
0.9571829999999864,22.079639890563683,-18.408917539548778,-155.6066226684035,-1.1463768482208252,-1.3424233198165894,1.5985809564590454,,,,,
0.966609999999946,20.298925114150915,-15.316879856326317,-151.7947262074281,-0.6318687200546265,-1.9349952936172485,2.6653852462768555,,,,,
0.9759770000000003,19.069301208670428,-12.102137586670773,-148.665313442252,0,-2.2209463119506836,3.6347789764404297,,,,,
0.9853749999999764,18.51746949733165,-9.178291859559762,-146.36754435020183,0.66374671459198,-2.229175329208374,4.3079633712768555,,,,,
0.9947589999999877,18.526981553319786,-7.066743654568685,-144.97436797289328,1.3002249002456665,-2.154369354248047,4.65541410446167,,,,,
1.004146999999989,18.72948365582259,-6.15792690650328,-144.55862658415305,1.731025218963623,-2.018711566925049,4.610396385192871,,,,,
1.0135379999999827,18.845864255242724,-6.563659465907108,-145.341358274153,1.9465153217315674,-1.7134180068969727,4.09084939956665,,,,,
1.0228909999999587,18.760610320612834,-8.167134442510307,-147.39137422474846,1.8338489532470703,-1.224328875541687,3.2190299034118652,,,,,
1.0323019999999588,18.562781277649012,-10.731369239707174,-150.64333850530588,1.5164250135421753,-0.5521438121795654,2.126657247543335,,,,,
1.0416769999999929,18.515384981411643,-13.977878744918096,-154.90334426989722,0.9982135891914368,0.2945202887058258,0.9469297528266907,,,,,
1.0510739999999714,18.883299617550612,-17.523189650538708,-159.67099109274818,0.3867403566837311,1.0663132667541504,-0.1731979250907898,,,,,
1.0599089999999478,19.697157880581784,-20.945669466193202,-164.30207427897358,-0.17668308317661285,1.7431161403656006,-1.1188786029815674,,,,,
1.0696509999999648,20.78261701401414,-23.970365874943788,-168.4188050230644,-0.585365355014801,2.3585548400878906,-1.9664490222930908,,,,,
1.0790339999999787,21.964571641427334,-26.454683437150145,-171.80416349043153,-0.958871603012085,2.8412773609161377,-2.5295145511627197,,,,,
1.0884289999999623,22.958003137360567,-28.35214340316537,-174.2658712899655,-1.2918074131011963,3.2481653690338135,-2.8853089809417725,,,,,
1.0978089999999838,23.510752068339478,-29.760049435837963,-175.71882827778225,-1.6622071266174316,3.5245046615600586,-3.120140552520752,,,,,
1.107187999999951,23.38275377868228,-30.801776685247127,-176.06144336781526,-1.9733920097351074,3.5706701278686523,-3.214244842529297,,,,,
1.11656899999997,22.45688240408392,-31.471241602841,-175.1066183427966,-2.246669054031372,3.2763705253601074,-3.00325083732605,,,,,
1.1259559999999738,20.766484082442386,-31.669343252914782,-172.78885615896033,-2.4416427612304688,2.6635661125183105,-2.619205951690674,,,,,
1.1352979999999775,18.400568026874176,-31.31948790983869,-169.16122326431054,-2.5647802352905273,1.8211722373962402,-2.06793212890625,,,,,
1.1448029999999676,15.58592317156389,-30.362812819065635,-164.60165964529506,-2.670248031616211,0.7527066469192505,-1.357661485671997,,,,,
1.1541089999999485,12.561026084485023,-28.774305316595463,-159.49422685207597,-2.507542610168457,-0.35337555408477783,-0.550051212310791,,,,,
1.1634879999999725,9.54684123243193,-26.60408133094821,-154.24188207767764,-2.1058084964752197,-1.3617072105407715,0.2977600693702698,,,,,
1.1728799999999637,6.705909693160437,-23.952844612240547,-149.14211294587352,-1.625013828277588,-2.31516170501709,1.3032586574554443,,,,,
1.182436999999993,4.163845098713706,-21.005547108915227,-144.4825844297551,-1.070698857307434,-3.183908462524414,2.351207971572876,,,,,
1.1918229999999994,2.0504037668142767,-18.06542293637428,-140.55207694289436,-0.3664706349372864,-3.7991790771484375,3.0917670726776123,,,,,
1.2011979999999767,0.4766941714912569,-15.471081905896206,-137.4125046965096,0.1729326844215393,-4.134546279907227,3.464137077331543,,,,,
1.2105929999999603,-0.5799567974090654,-13.579734729363755,-135.18078845431793,0.6667786836624146,-4.220633029937744,3.476614236831665,,,,,
1.219985999999949,-1.18080951042595,-12.677307514235927,-134.0610863288512,1.0002933740615845,-4.0444464683532715,3.1716103553771973,,,,,
1.229360999999983,-1.433063327927694,-12.888378509634743,-134.19496656413716,1.1079647541046143,-3.641476631164551,2.67573881149292,,,,,
1.238745999999992,-1.5325112134451477,-14.120992154521128,-135.61513048798278,1.16049063205719,-2.9076755046844482,1.908300757408142,,,,,
1.2481349999999907,-1.7012817299659282,-16.204633790114055,-138.22179767827413,1.1329556703567505,-2.045978546142578,1.175153136253357,,,,,
1.2575169999999503,-2.054308690642688,-18.936211070532917,-141.81117907948646,0.8161807060241699,-1.0004087686538696,0.50311279296875,,,,,
1.2669199999999705,-2.4749804832017714,-22.041349257964804,-146.1249190663202,0.39209967851638794,0.29281145334243774,-0.24138271808624268,,,,,
1.2761109999999576,-2.714361179155476,-25.286029478264528,-150.62786101989263,-0.20510274171829224,1.5648918151855469,-0.9309857487678528,,,,,
1.2854839999999967,-2.7406995830566356,-28.40476342311911,-154.89432193511954,-0.8373112678527832,2.5196359157562256,-1.3741637468338013,,,,,
1.294873999999993,-2.7552545836558706,-31.10994616136083,-158.5369977447421,-1.4229044914245605,3.1431283950805664,-1.5866957902908325,,,,,
1.3042539999999576,-3.0104744937946184,-33.21286106947875,-161.32930831421385,-1.891709804534912,3.549487590789795,-1.6926543712615967,,,,,
1.313586999999984,-3.712449799321933,-34.68977567339106,-163.11528958570457,-2.1978397369384766,3.7432520389556885,-1.6925714015960693,,,,,
1.3230239999999753,-4.906658658922652,-35.59552160130166,-163.8512466136151,-2.305926561355591,3.665135145187378,-1.5531412363052368,,,,,
1.3324059999999918,-6.430519981974627,-35.97630059536404,-163.60300309970214,-2.3064377307891846,3.3826844692230225,-1.4124550819396973,,,,,
1.3418669999999793,-8.177807542569777,-35.77711924847397,-162.4495319363699,-2.3324127197265625,2.8726043701171875,-1.2329702377319336,,,,,
1.3511989999999514,-10.152035209193683,-34.896954168069044,-160.4434541058758,-2.273033380508423,2.1346311569213867,-1.014003872871399,,,,,
1.3606349999999452,-12.256496555652465,-33.30057080744317,-157.75884005366837,-2.005229949951172,1.2656726837158203,-0.7464746236801147,,,,,
1.369936999999993,-14.293235912390886,-30.99195970610467,-154.6444950458402,-1.6417161226272583,0.33144527673721313,-0.3644152283668518,,,,,
1.3793199999999501,-16.09163908981802,-28.062173060091464,-151.38626649133803,-1.1855992078781128,-0.7362883687019348,0.16010451316833496,,,,,
1.3888859999999568,-17.50712319972479,-24.817312788899795,-148.3814431310163,-0.6337195634841919,-1.741661787033081,0.7999393939971924,,,,,
1.3984109999999532,-18.499633849094344,-21.659980794539383,-145.92857212120612,-0.15438233315944672,-2.4832863807678223,1.4063820838928223,,,,,
1.407658999999967,-19.021834983631386,-18.85968386873924,-144.13628343034452,0.3772682845592499,-3.0185060501098633,1.804735541343689,,,,,
1.4170329999999467,-19.104099624820876,-16.654100865798416,-143.03278989172733,0.8580073118209839,-3.3520517349243164,1.9626901149749756,,,,,
1.4264099999999758,-18.923409108496088,-15.311091397037773,-142.72007329568268,1.1164889335632324,-3.457491397857666,1.9919564723968506,,,,,
1.435801999999967,-18.807128743021472,-14.97124764964603,-143.19003263027682,1.2412865161895752,-3.2785282135009766,1.848581075668335,,,,,
1.4451909999999657,-18.97029238216159,-15.657561747450984,-144.36262832917922,1.3766212463378906,-2.8104255199432373,1.5306276082992554,,,,,
1.4545379999999568,-19.402853141648162,-17.294185168477433,-146.1609185900309,1.4102303981781006,-2.2260191440582275,1.0909655094146729,,,,,
1.4639189999999758,-19.919544377515123,-19.595443394504898,-148.52237050344556,1.2271952629089355,-1.5746642351150513,0.706381618976593,,,,,
1.4732979999999998,-20.263810183270238,-22.23031821299342,-151.45175599167743,1.023932695388794,-0.7129809856414795,0.3618723750114441,,,,,
1.4827139999999872,-20.16758508505519,-24.945274140778075,-154.85160658370157,0.7826263904571533,0.1820673793554306,0.1824687123298645,,,,,
1.4921079999999733,-19.652582331915966,-27.59053664577728,-158.42614977804072,0.4672166705131531,1.0151890516281128,0.21040254831314087,,,,,
1.5012659999999869,-18.814150307149205,-30.11863256638401,-161.94003460336285,0.16407769918441772,1.7888329029083252,0.23262906074523926,,,,,
1.510693999999944,-17.73155442470154,-32.48526875783849,-165.20101908696594,-0.0986214280128479,2.430701732635498,0.16596031188964844,,,,,
1.5200779999999554,-16.579948585110426,-34.66345190725436,-168.0463150764262,-0.39771801233291626,2.786214828491211,0.12108439207077026,,,,,
1.5294779999999832,-15.38427353380436,-36.69870109675211,-170.4750951161109,-0.7574343681335449,2.9847936630249023,0.1238904595375061,,,,,
1.538759999999968,-14.07620650253817,-38.61694546384227,-172.57255784560303,-1.0628304481506348,3.1673200130462646,0.05440795421600342,,,,,
1.548217999999963,-12.764069094923949,-40.38258470092967,-174.2384175373997,-1.3342684507369995,3.2312285900115967,-0.09362012147903442,,,,,
1.557615999999996,-11.748027636365444,-41.91637321443114,-175.23516241591534,-1.5842735767364502,3.178086042404175,-0.29347342252731323,,,,,
1.5669889999999782,-11.26428272210573,-43.104936561540384,-175.40454449419525,-1.8074531555175781,3.0332834720611572,-0.394682914018631,,,,,
1.5763719999999921,-11.402938257500269,-43.84248132481265,-174.6433870060426,-2.013702869415283,2.8043925762176514,-0.42005762457847595,,,,,
1.5857619999999883,-12.107759835370823,-44.09502913572093,-172.92410784475464,-2.0934910774230957,2.41788911819458,-0.4582017958164215,,,,,
1.5952249999999708,-13.321700797696364,-43.891802646519125,-170.29018260891428,-2.1080193519592285,1.825739860534668,-0.5111740827560425,,,,,
1.6046079999999847,-15.026506797724405,-43.21668143340134,-166.83908588900502,-2.1624319553375244,1.0829620361328125,-0.5040052533149719,,,,,
1.6139899999999443,-17.085794354837333,-41.99839776242537,-162.80326501335404,-2.0877339839935303,0.2207852303981781,-0.42585259675979614,,,,,
1.623301999999967,-19.26982564485167,-40.223541732787695,-158.4997071905409,-1.6476435661315918,-0.6605799794197083,-0.348890095949173,,,,,
1.6326899999999682,-21.279366642357314,-37.98479684773087,-154.20900211612383,-1.249127984046936,-1.629845142364502,-0.16225075721740723,,,,,
1.6420659999999998,-22.88573912643226,-35.41041873181751,-150.24271679563498,-0.9344566464424133,-2.608111619949341,0.18390488624572754,,,,,
1.6516249999999673,-24.03003142089964,-32.698425574222036,-146.937951735047,-0.40334001183509827,-3.3924667835235596,0.4477536082267761,,,,,
1.6610109999999736,-24.749274435747438,-30.153275446330763,-144.47667130612288,0.12158668041229248,-3.9075098037719727,0.6106674075126648,,,,,
1.67039699999998,-25.026877064838295,-28.06347615711689,-142.94590297979394,0.5916765928268433,-4.109947204589844,0.6566217541694641,,,,,
1.6797749999999496,-24.863396640359344,-26.60689022346304,-142.38189075380737,0.9170635938644409,-3.9936182498931885,0.6303280591964722,,,,,
1.6891579999999635,-24.3331334634018,-25.882006754028865,-142.6625547689206,1.0999431610107422,-3.6445488929748535,0.616905927658081,,,,,
1.6985519999999497,-23.610227019791356,-25.908354563180623,-143.84778961507408,1.1771214008331299,-3.0903854370117188,0.5175619721412659,,,,,
1.7079269999999838,-22.845507305680687,-26.602248903767077,-145.89249200884208,1.2470240592956543,-2.332213878631592,0.3015803098678589,,,,,
1.71731699999998,-22.074161033483012,-27.765960460297563,-148.61807655361147,1.2579929828643799,-1.3920533657073975,0.05206453800201416,,,,,
1.7266889999999648,-21.17343886348562,-29.1958573430154,-151.86492456160641,1.1030770540237427,-0.4179114103317261,-0.12374430894851685,,,,,
1.7360799999999585,-20.07164295311228,-30.743333826221143,-155.45911792467186,0.7651642560958862,0.5338431000709534,-0.14040833711624146,,,,,
1.7452859999999646,-18.868547326910775,-32.32663646845074,-159.23260379978433,0.32778769731521606,1.3839662075042725,0,,,,,
1.7546709999999734,-17.77445797913335,-33.8828347995185,-162.9348816693168,-0.07487159967422485,2.1449198722839355,0.14104658365249634,,,,,
1.7640479999999457,-16.83425896311329,-35.344245062895865,-166.2549920782074,-0.4320952594280243,2.746013641357422,0.24138623476028442,,,,,
1.7734369999999444,-15.976608502727231,-36.61564281883484,-168.90834198836103,-0.7748157978057861,3.097200393676758,0.24095505475997925,,,,,
1.7828239999999482,-15.12711000697048,-37.63693685916896,-170.82511057721774,-1.1589317321777344,3.221519947052002,0.15421044826507568,,,,,
1.7922019999999748,-14.392907942528684,-38.42953604433712,-172.04890072355724,-1.5819437503814697,3.26326847076416,0.07887274026870728,,,,,
1.801589999999976,-14.014129808050324,-39.01821595553667,-172.55552822636085,-1.8776355981826782,3.2896313667297363,-0.03889364004135132,,,,,
1.810970999999995,-14.122843653613346,-39.36996031153957,-172.23573189706255,-2.0817415714263916,3.2195987701416016,-0.17312079668045044,,,,,
1.8203569999999445,-14.718146064749268,-39.34830234684391,-171.0482814225294,-2.191005229949951,2.988318920135498,-0.2691963315010071,,,,,
1.8296969999999533,-15.663538124044587,-38.804119940756294,-169.0992770352032,-2.2063241004943848,2.6045289039611816,-0.30333760380744934,,,,,
1.8391269999999622,-16.790344881273494,-37.71140981199347,-166.54547341035237,-2.1667046546936035,2.0834157466888428,-0.3130446970462799,,,,,
1.848468999999966,-17.94537016779646,-36.153394490166356,-163.54123099859962,-2.1039767265319824,1.4368185997009277,-0.3782404959201813,,,,,
1.85789299999999,-19.13881227985993,-34.22414560655276,-160.25338192006444,-1.9407953023910522,0.6763737201690674,-0.40293532609939575,,,,,
1.8672769999999446,-20.38249068499196,-31.942946429597285,-156.85784020938982,-1.6051216125488281,-0.22173058986663818,-0.2896270155906677,,,,,
1.8766599999999585,-21.608750073391732,-29.2651388455178,-153.49927096666516,-1.113498330116272,-1.133217215538025,-0.051235973834991455,,,,,
1.886225999999965,-22.740740168784587,-26.203109063302314,-150.32275573817083,-0.42399248480796814,-2.0353314876556396,0.2683221101760864,,,,,
1.8955999999999449,-23.752888206158136,-22.91001998831879,-147.39859615133662,0.215341717004776,-2.952988624572754,0.6741055250167847,,,,,
1.9049839999999563,-24.605489829201115,-19.67563433149399,-144.92326778971278,0.7332406044006348,-3.790097713470459,0.9968279600143433,,,,,
1.9143649999999752,-25.310939598529163,-16.81129415393448,-143.20539014694927,1.2865276336669922,-4.27529239654541,1.1159172058105469,,,,,
1.9237579999999639,-25.852022843874497,-14.589149163390617,-142.45111786052698,1.8284544944763184,-4.368946075439453,1.0315643548965454,,,,,
1.9331399999999803,-26.01386788125774,-13.16592067195627,-142.69619157429554,2.2397971153259277,-4.12353515625,0.8129295706748962,,,,,
1.942528999999979,-25.791245217318213,-12.592308509593767,-143.8529551657426,2.339836835861206,-3.583554983139038,0.6623795628547668,,,,,
1.9519159999999829,-25.434637326403355,-12.8370243001921,-145.8943273535304,2.201958417892456,-2.8520681858062744,0.6325427293777466,,,,,
1.9612919999999576,-25.391719923217135,-13.880785707516477,-148.65784715426938,1.9324263334274292,-1.866332769393921,0.5945518016815186,,,,,
1.9706809999999564,-25.91885720030578,-15.693102295604223,-151.82787671711563,1.5700037479400635,-0.741118311882019,0.4802638292312622,,,,,
1.979962999999998,-26.851622099267303,-18.10791590030568,-155.04978578382625,1.001420021057129,0.3060958981513977,0.4461878538131714,,,,,
1.9894409999999993,-27.756186768098413,-20.78365309262196,-158.169719849283,0.411314994096756,1.2613496780395508,0.38094067573547363,,,,,
1.9986429999999586,-28.21763582942122,-23.36646544307527,-161.05802824401928,-0.08063605427742004,1.9741768836975098,0.27227747440338135,,,,,
2.0080259999999726,-28.081325505413677,-25.517111287118897,-163.64133258816167,-0.5630344152450562,2.467092514038086,0.30471354722976685,,,,,
2.0173789999999485,-27.50688194449802,-27.067726122687123,-165.8408225371028,-1.0174695253372192,2.7922239303588867,0.36846715211868286,,,,,
2.026805999999965,-26.816751028959395,-28.105234879321557,-167.55203985004204,-1.6010628938674927,3.00728178024292,0.5233106017112732,,,,,
2.0361369999999965,-26.371724181685952,-28.850607428084036,-168.67799063317378,-2.111234188079834,3.12283992767334,0.7102649211883545,,,,,
2.0455599999999663,-26.4103411583983,-29.467136083735124,-169.098708414899,-2.4114787578582764,3.1625165939331055,0.7808592319488525,,,,,
2.054961999999989,-27.044055233186977,-29.948042492836876,-168.68796205844757,-2.5634610652923584,3.0711381435394287,0.7276510000228882,,,,,
2.0643389999999613,-28.224160858129764,-30.16210504967133,-167.39785042032125,-2.5613269805908203,2.8179078102111816,0.5699493288993835,,,,,
2.073712999999998,-29.717501258200013,-29.952599837140067,-165.23998831370528,-2.5681662559509277,2.258054256439209,0.3174617886543274,,,,,
2.0831059999999866,-31.26907321766137,-29.229722616533294,-162.37094935372457,-2.5120551586151123,1.3618696928024292,-0.050741493701934814,,,,,
2.0924849999999537,-32.695625664290084,-27.886054896062436,-159.17477954172463,-2.1989009380340576,0.26615089178085327,-0.38977983593940735,,,,,
2.1018679999999677,-33.86522163447796,-25.904329828278225,-155.97088194236406,-1.580991506576538,-0.8475751280784607,-0.5717224478721619,,,,,
2.111257999999964,-34.635516583304735,-23.46166271391992,-153.0100626715634,-0.8453927636146545,-1.857872724533081,-0.6430037021636963,,,,,
2.1208219999999756,-34.91394823128966,-20.827776250328636,-150.48714409216527,-0.14157690107822418,-2.735869884490967,-0.6461296081542969,,,,,
2.1301979999999503,-34.71045894054228,-18.310421220314165,-148.59781245001773,0.49859458208084106,-3.4212241172790527,-0.5808212757110596,,,,,
2.1395799999999667,-34.11406327343794,-16.206256726341035,-147.5210268328321,1.0065361261367798,-3.8605141639709473,-0.5017305612564087,,,,,
2.1489669999999705,-33.31247931662147,-14.696933587864423,-147.34122664403853,1.415006399154663,-4.042294502258301,-0.44868430495262146,,,,,
2.158346999999992,-32.48196257338837,-13.870611757566586,-148.04716170262938,1.7042145729064941,-3.932108163833618,-0.400985449552536,,,,,
2.1677309999999466,-31.722088391032315,-13.76028171788489,-149.53370802501598,1.7360965013504028,-3.52016544342041,-0.3608831465244293,,,,,
2.1771199999999453,-31.075469515983844,-14.34724689842135,-151.81372160710325,1.638806700706482,-2.8885979652404785,-0.3144434690475464,,,,,
2.186499999999967,-30.60136079489511,-15.535359230938127,-154.7588046713302,1.4001474380493164,-2.043227195739746,-0.19512319564819336,,,,,
2.195891999999958,-30.317381616235,-17.185286646784068,-158.12835232584692,1.0353091955184937,-1.1232619285583496,0,,,,,
2.2052659999999946,-30.130575948449973,-19.131981666226586,-161.77318330270694,0.567730188369751,-0.17991235852241516,0.28308790922164917,,,,,
2.2145999999999617,-29.88906585486483,-21.133783737695808,-165.48569557587166,0,0.7710306644439697,0.6523981094360352,,,,,
2.2238679999999817,-29.401598450787812,-22.980931653935873,-169.17662708866604,-0.4943740963935852,1.5873022079467773,1.0567400455474854,,,,,
2.2332419999999615,-28.55194162088191,-24.550252696591,-172.56112624789705,-0.9967049360275269,2.1922833919525146,1.5300095081329346,,,,,
2.242621999999983,-27.331113734735464,-25.85220763477731,-175.5161301974846,-1.4164493083953857,2.653595209121704,1.8476996421813965,,,,,
2.2520099999999843,-25.816235265158856,-26.890740024348684,-177.91356057030637,-1.828212857246399,2.9669933319091797,1.9931435585021973,,,,,
2.2613959999999906,-24.190255670873878,-27.760687355012738,-179.60647983981238,-2.1589019298553467,3.2576677799224854,1.9561078548431396,,,,,
2.2707789999999477,-22.691133692704742,-28.602131689564263,179.44915607069197,-2.322638988494873,3.444810152053833,1.7476043701171875,,,,,
2.2801599999999667,-21.503512653258227,-29.46729646111333,179.40478608969767,-2.3058292865753174,3.515298366546631,1.3913371562957764,,,,,
2.2895389999999907,-20.71580349627655,-30.296421127083686,-179.67883151961712,-2.2036964893341064,3.361281633377075,0.8899098634719849,,,,,
2.2989189999999553,-20.390426560095555,-30.94947742932908,-177.81043302199996,-2.057589054107666,2.965975284576416,0.35536664724349976,,,,,
2.308312000000001,-20.516258816211145,-31.267889982910916,-175.15684072860546,-1.8473832607269287,2.2849979400634766,-0.12196570634841919,,,,,
2.317686999999978,-21.01552668839875,-31.038001764318356,-171.82461416647723,-1.6026334762573242,1.4377306699752808,-0.3711186945438385,,,,,
2.3270689999999945,-21.737036430422876,-30.151229622504466,-168.07901726576543,-1.1615790128707886,0.6279274821281433,-0.37157508730888367,,,,,
2.3366349999999443,-22.37731598555359,-28.681917428776035,-164.11639631783348,-0.631233274936676,-0.22012951970100403,-0.2968772053718567,,,,,
2.346017999999958,-22.816111236209647,-26.760057825736265,-160.0569609731428,-0.07254937291145325,-1.1382482051849365,-0.13226532936096191,,,,,
2.355402999999967,-23.016087941565157,-24.569402132917734,-156.11614455954938,0.4535711705684662,-1.9960793256759644,0.12161940336227417,,,,,
2.3647909999999683,-22.89881586165421,-22.381472386103244,-152.57977266941487,0.9297473430633545,-2.7307064533233643,0.3589326739311218,,,,,
2.374181999999962,-22.486175770974782,-20.493868483410523,-149.5512033031693,1.3981480598449707,-3.3032052516937256,0.3933061957359314,,,,,
2.383564999999976,-21.80065679568074,-19.171513914084915,-147.1567539511381,1.7609703540802002,-3.6415419578552246,0.3923035264015198,,,,,
2.3929049999999847,-20.832675392327978,-18.5264887987744,-145.55122869164364,1.8699564933776855,-3.8176181316375732,0.3523591160774231,,,,,
2.4023259999999595,-19.468855369873875,-18.580744200455868,-144.9546775071279,1.86539888381958,-3.6029586791992188,0.3275441527366638,,,,,
2.4117199999999457,-17.679690048774287,-19.289275751807196,-145.44157341965274,1.7963616847991943,-3.0947017669677734,0.18066328763961792,,,,,
2.4210859999999457,-15.425113878747766,-20.594142270782775,-146.82823104643077,1.6197692155838013,-2.4716153144836426,0.14438623189926147,,,,,
2.430473999999947,-13.046075383607501,-22.47066358019349,-149.01885891408477,1.2259883880615234,-1.8693057298660278,0,,,,,
2.4398539999999684,-10.971320758533743,-24.944229679076475,-151.89945652959153,0.6379504203796387,-1.1621133089065552,-0.07420724630355835,,,,,
2.4492589999999836,-9.314372006751315,-27.862520787446734,-155.325480804211,0.13312599062919617,-0.42909014225006104,-0.34732353687286377,,,,,
2.458629999999971,-7.814178766755209,-30.911742627420487,-159.07597648966535,-0.2677720785140991,0.3103860914707184,-0.7221323847770691,,,,,
2.4678539999999884,-6.015222833068798,-33.719979633509624,-162.93392895890793,-0.7183781862258911,0.9697113037109375,-1.027255892753601,,,,,
2.477209999999957,-3.473103977028314,-35.89497596214728,-166.78001442493323,-1.1892333030700684,1.4911158084869385,-1.193143367767334,,,,,
2.4866099999999847,-0.0995036301371886,-37.04970635263288,-170.36479501098196,-1.6019399166107178,2.0256102085113525,-1.283665657043457,,,,,
2.4959859999999594,3.7533542393126504,-36.994875036928626,-173.21526640349936,-1.8256559371948242,2.432368040084839,-1.2376339435577393,,,,,
2.50551999999999,7.403177519138452,-35.99668446053295,-174.8990561097658,-2.1276304721832275,2.637092113494873,-0.9984768033027649,,,,,
2.5147459999999455,10.42488944996794,-34.55255192946619,-175.34960288523732,-2.3168935775756836,2.7509098052978516,-0.8380653262138367,,,,,
2.5241309999999544,12.768245333794617,-33.14443156459807,-174.8008896840976,-2.3682188987731934,2.7724733352661133,-0.8404968976974487,,,,,
2.533517999999958,14.47828571191017,-32.06197226796454,-173.55257140011008,-2.421111583709717,2.552394151687622,-0.9518274664878845,,,,,
2.5428939999999898,15.395478327451633,-31.319496253611824,-171.7813108235487,-2.3651890754699707,2.2080788612365723,-1.083482027053833,,,,,
2.5522889999999734,15.399128934553863,-30.76343389750504,-169.46065233913666,-2.2348737716674805,1.7243093252182007,-1.3056966066360474,,,,,
2.5617619999999874,14.564178162707119,-30.150223607008414,-166.52664723810747,-2.08022403717041,1.0284175872802734,-1.5010885000228882,,,,,
2.57113099999998,13.05863740127296,-29.119143128187165,-163.12980602973795,-1.808138132095337,0.3167153000831604,-1.3636572360992432,,,,,
2.580528999999956,11.21608681809209,-27.42767922598739,-159.39271761965404,-1.4705510139465332,-0.3200235068798065,-0.9701887369155884,,,,,
2.589839999999981,9.535886622593587,-25.06748960074732,-155.44375323232572,-1.098595380783081,-0.9093910455703735,-0.45799386501312256,,,,,
2.599207999999976,8.38418121275557,-22.17005562304949,-151.48219098414467,-0.7655659914016724,-1.504847526550293,0.10911959409713745,,,,,
2.6087719999999877,7.883211189614314,-18.922569309118987,-147.70125923672157,-0.5055866241455078,-2.0871119499206543,0.8393036723136902,,,,,
2.61814899999996,7.932428388062105,-15.55073621469819,-144.32713638059073,-0.1753753423690796,-2.4799909591674805,1.5621979236602783,,,,,
2.627540999999951,8.47791179218324,-12.37155413552671,-141.57456546798628,0.28399455547332764,-2.6972227096557617,2.1036596298217773,,,,,
2.63692199999997,9.450165503675928,-9.720819782209112,-139.61556312023066,0.685882031917572,-2.816310405731201,2.4817988872528076,,,,,
2.646304999999984,10.581249478966848,-7.809961888322758,-138.51542093901926,0.9708942174911499,-2.824448823928833,2.684903144836426,,,,,
2.655685999999946,11.566476974566813,-6.690208807379789,-138.46995682197453,1.1971933841705322,-2.6264541149139404,2.679171085357666,,,,,
2.665074999999945,12.121158809748472,-6.331149598731759,-139.5459902772277,1.3576277494430542,-2.2453699111938477,2.4774417877197266,,,,,
2.6744469999999865,12.1563521386327,-6.646766893740016,-141.64502897601216,1.4429224729537964,-1.6770715713500977,2.138042688369751,,,,,
2.68384999999995,11.912528084068606,-7.528919749498771,-144.55185326033092,1.3622515201568604,-0.9571373462677002,1.7007964849472046,,,,,
2.69321599999995,11.824387718180477,-8.845622415777335,-148.07292993238607,1.1008731126785278,-0.1753942370414734,1.1627379655838013,,,,,
2.7025999999999613,12.222136504405622,-10.432708309233298,-151.96656996120683,0.7187888622283936,0.6069985628128052,0.5870038270950317,,,,,
2.71198099999998,13.175064784647445,-12.111564446221617,-155.9111894435219,0.3699251413345337,1.359971284866333,0,,,,,
2.721188999999981,14.529940793052395,-13.710370271929973,-159.58000230098364,0.06481070816516876,1.9376195669174194,-0.46951261162757874,,,,,
2.73057799999998,15.960767525109443,-15.15572122351521,-162.70090164501707,-0.22728697955608368,2.3302533626556396,-0.8936039209365845,,,,,
2.7399579999999446,17.178081811933037,-16.457146120603763,-165.20725435188436,-0.41311007738113403,2.6376774311065674,-1.2903004884719849,,,,,
2.749341999999956,18.116928407560973,-17.677589721203933,-167.0920470090625,-0.6723486185073853,2.804474115371704,-1.6502306461334229,,,,,
2.758726999999965,18.893633652628516,-18.74667203319975,-168.40363042523214,-1.0126409530639648,2.864142417907715,-1.9441494941711426,,,,,
2.7681119999999737,19.629245799468325,-19.500875129748355,-169.1114501519451,-1.2598059177398682,2.8394737243652344,-2.208624839782715,,,,,
2.77749799999998,20.291766658365383,-19.856974135883846,-169.16023721541075,-1.4388983249664307,2.7003908157348633,-2.367640972137451,,,,,
2.7868909999999687,20.668147050044926,-19.812650832965346,-168.45298299103877,-1.6099464893341064,2.4082977771759033,-2.3669445514678955,,,,,
2.796272999999985,20.56211798361054,-19.33541337430708,-166.92253502851602,-1.6774942874908447,2.0392873287200928,-2.181070327758789,,,,,
2.8056119999999964,19.97067299018995,-18.432893604135074,-164.54711244950911,-1.7323741912841797,1.53477144241333,-1.817136287689209,,,,,
2.8150440000000003,19.085653945267673,-17.20504096285143,-161.4557920040616,-1.7651642560958862,0.8378623723983765,-1.32803213596344,,,,,
2.82441399999999,18.111090812803706,-15.725449437915703,-157.86533709823772,-1.6930639743804932,0.056278735399246216,-0.7670150995254517,,,,,
2.833804999999984,17.195308172539278,-13.960953226788893,-154.05220238281223,-1.6406038999557495,-0.7114607691764832,-0.06551730632781982,,,,,
2.8431829999999536,16.507672532801674,-11.846604055037968,-150.1830008623674,-1.4482311010360718,-1.421479344367981,0.7342613339424133,,,,,
2.8527479999999628,16.13107220918549,-9.486357976912606,-146.49547380724692,-1.1947391033172607,-1.9193317890167236,1.4612774848937988,,,,,
2.862120999999945,16.124391259296562,-7.137132362605452,-143.2497634876126,-0.8628342747688293,-2.1133835315704346,1.9362317323684692,,,,,
2.8715159999999855,16.508073407671258,-5.110214401523847,-140.73619697130093,-0.4811811149120331,-2.1174168586730957,2.2119083404541016,,,,,
2.8809029999999893,17.221387172717268,-3.641701243568815,-139.08861601910917,-0.17014577984809875,-2.077890634536743,2.321485996246338,,,,,
2.8902420000000006,18.089878516750836,-2.7752992563478207,-138.26640865609036,0.06918814778327942,-1.9412884712219238,2.2740297317504883,,,,,
2.8996229999999628,18.94969732581917,-2.373537024227444,-138.1755108030299,0.3316612243652344,-1.7608915567398071,2.0950047969818115,,,,,
2.909008999999969,19.728625374994394,-2.2918937575007816,-138.71831030258232,0.6124650239944458,-1.5150879621505737,1.7644364833831787,,,,,
2.9184300000000007,20.434876458563597,-2.43556833280663,-139.74625260413953,0.8498114943504333,-1.2282075881958008,1.4442423582077026,,,,,
2.927823999999987,21.082007329850267,-2.7278043199222837,-141.242352242495,1.1528881788253784,-0.9004929065704346,1.1297924518585205,,,,,
2.937187999999992,21.752981470432896,-3.1281858859969156,-143.19276118007477,1.3989372253417969,-0.5899022817611694,0.8401315212249756,,,,,
2.946585999999968,22.57025695757098,-3.623796426494668,-145.64191395752042,1.475702166557312,-0.2713014483451843,0.5258467197418213,,,,,
2.955960999999945,23.62590727310504,-4.198134373658773,-148.55748757015405,1.4029932022094727,0.14906293153762817,0.1618308424949646,,,,,
2.9653509999999983,24.93752201134542,-4.840224294689093,-151.83947877240487,1.1688053607940674,0.5692886114120483,-0.15518403053283691,,,,,
2.974728999999968,26.37003730706635,-5.538105776750626,-155.2871540026205,0.9382948875427246,1.0594770908355713,-0.42303529381752014,,,,,
2.9841109999999844,27.643693039971037,-6.39603140026019,-158.67360335033882,0.6674463748931885,1.446014642715454,-0.69001305103302,,,,,
2.99333299999995,28.47252469698248,-7.567202856337617,-161.76269370094653,0.38095319271087646,1.7070609331130981,-0.9743549823760986,,,,,
3.0028489999999692,28.770262270623892,-9.089186746120731,-164.33609924128814,0.21339412033557892,1.9017869234085083,-1.342566728591919,,,,,
3.0120959999999855,28.788345719641594,-10.798108235885914,-166.36722476358023,0,1.9437661170959473,-1.6624228954315186,,,,,
3.0214679999999703,28.90552314561346,-12.393982077319162,-167.8235157249266,-0.4466797113418579,1.8183205127716064,-1.9317843914031982,,,,,
3.0308599999999615,29.411335194911633,-13.554661650135351,-168.6558949267792,-0.9378281235694885,1.5934244394302368,-2.143221378326416,,,,,
3.040198999999973,30.38358566443504,-14.074816352749023,-168.93906977198566,-1.2992238998413086,1.3066959381103516,-2.266108512878418,,,,,
3.049616999999955,31.649850008334887,-13.990537148813592,-168.72107671900955,-1.5715649127960205,1.0414531230926514,-2.294893980026245,,,,,
3.059010999999998,32.83330432509728,-13.4732090788041,-168.0775132116534,-1.8016698360443115,0.8117913007736206,-2.221830368041992,,,,,
3.068393999999955,33.50363901200794,-12.691895973818667,-166.98137255438894,-1.911363124847412,0.5519275665283203,-2.0478672981262207,,,,,
3.0777859999999464,33.510558048015305,-11.692551573481861,-165.46157866917645,-1.9260348081588745,0.35166770219802856,-1.7500216960906982,,,,,
3.0871589999999856,32.995729000516874,-10.534385925385513,-163.60153492771596,-1.9637839794158936,0.05288010835647583,-1.480198621749878,,,,,
3.0965419999999995,32.169591815043745,-9.272575463897507,-161.44888486153897,-1.8935335874557495,-0.3305198550224304,-1.1133266687393188,,,,,
3.105930999999998,31.13660578834647,-7.865628579347179,-159.0401010918769,-1.7013802528381348,-0.7452414035797119,-0.6224241256713867,,,,,
3.1152669999999603,29.95808460856052,-6.1469207901130325,-156.43466572296947,-1.4427356719970703,-1.0889331102371216,0.054325759410858154,,,,,
3.124655999999959,28.71921381356678,-3.9332686570335516,-153.73143563517527,-1.0826594829559326,-1.2914235591888428,0.7298717498779297,,,,,
3.1342519999999467,27.61836465330589,-1.2041016926240369,-151.04360996081778,-0.6907942891120911,-1.3894633054733276,1.425067663192749,,,,,
3.143549999999948,26.83080071477451,1.9395952280162307,-148.5470305926402,-0.3567976653575897,-1.4544322490692139,2.24454665184021,,,,,
3.1530239999999594,26.534318611077197,5.264578594869339,-146.4386333657181,0.12396426498889923,-1.6080026626586914,2.873541831970215,,,,,
3.162412999999958,26.965340790988883,8.29555588511449,-144.68720029104347,0.5671334266662598,-1.4727803468704224,3.233839273452759,,,,,
3.1717879999999923,28.146318202045116,10.603300361680311,-143.43736923477363,0.998726487159729,-1.1712754964828491,3.517017364501953,,,,,
3.181191999999953,29.7734681955406,11.939342338841843,-142.9944052610529,1.433222770690918,-0.838659405708313,3.704801559448242,,,,,
3.1905479999999784,31.35865215346945,12.28675459905692,-143.59225670234295,1.7417113780975342,-0.39697152376174927,3.705501079559326,,,,,
3.1999509999999987,32.406251840424524,11.755464349207381,-145.2495723556887,1.9644417762756348,0,3.33949875831604,,,,,
3.209323999999981,32.676604537676475,10.382399871449044,-147.86926312952932,1.8174593448638916,0.3097612261772156,2.5804905891418457,,,,,
3.2187059999999974,32.26687973973866,8.232983026015708,-151.26304057465586,1.4717806577682495,0.5305923819541931,1.7056279182434082,,,,,
3.228098999999986,31.534189106122348,5.429633939843656,-155.10040562894,1.0264605283737183,0.7469133734703064,0.8758477568626404,,,,,
3.2374809999999457,30.908636641570407,2.2145061099513708,-159.11876693665096,0.5368893146514893,0.9626630544662476,0.06741684675216675,,,,,
3.2468619999999646,30.72750045143393,-1.1274049016038934,-163.1147106076962,-0.0357799232006073,1.1051493883132935,-0.7264572978019714,,,,,
3.2560759999999505,31.095411546031453,-4.347922702180805,-166.87704056242416,-0.6296937465667725,1.2022876739501953,-1.5426523685455322,,,,,
3.265447999999992,31.90495604682083,-7.199948024959032,-170.10672967684343,-1.1364699602127075,1.2914977073669434,-2.2847561836242676,,,,,
3.2748379999999884,32.93796917150263,-9.434254709829636,-172.70863897362403,-1.723565936088562,1.3651095628738403,-2.864084005355835,,,,,
3.2842169999999555,33.89427171458012,-10.861460196662192,-174.71984366755825,-2.1950933933258057,1.48459792137146,-3.2227413654327393,,,,,
3.293555999999967,34.42236522693537,-11.455613147096734,-175.9918538108344,-2.379483222961426,1.6583142280578613,-3.28920316696167,,,,,
3.302992999999958,34.33068524375933,-11.294017241925475,-176.19262130196563,-2.400874376296997,1.663442850112915,-3.0275163650512695,,,,,
3.3123689999999897,33.60916150363196,-10.579126208262641,-175.16250749986577,-2.2588155269622803,1.381037950515747,-2.4822640419006348,,,,,
3.321749999999952,32.29998990693721,-9.570569025157802,-173.0300886198566,-1.9474644660949707,0.9400073289871216,-1.8212051391601562,,,,,
3.331148999999982,30.441333221824916,-8.490931744680733,-170.0214065654535,-1.549190878868103,0.3982757329940796,-1.0425269603729248,,,,,
3.340697999999975,28.131430064911807,-7.317666478212026,-166.39432705765782,-1.0370041131973267,-0.25586894154548645,-0.06411463022232056,,,,,
3.350085999999976,25.503980531570864,-5.9115029313446925,-162.59839780715922,-0.4521576166152954,-0.8787132501602173,1.0232588052749634,,,,,
3.359470999999985,22.76702029644816,-4.243289650731829,-158.98827341063267,0.19904331862926483,-1.3133728504180908,1.9798955917358398,,,,,
3.3688589999999863,20.22205691796864,-2.52085977707016,-155.86220497958257,0.819044291973114,-1.562645435333252,2.752317428588867,,,,,
3.378234999999961,18.15755248018582,-1.126361138654066,-153.42502183470424,1.3289302587509155,-1.6743147373199463,3.327789306640625,,,,,
3.3876019999999585,16.796300227479612,-0.42590835632433804,-151.7737651080855,1.7103264331817627,-1.7151455879211426,3.592069149017334,,,,,
3.3969959999999446,16.181658589342142,-0.5969757313956972,-150.89351184272672,1.8996127843856812,-1.5977362394332886,3.4528982639312744,,,,,
3.4063829999999484,16.066025654480494,-1.7105447986975904,-150.7735442557466,1.8772534132003784,-1.4829611778259277,3.0552375316619873,,,,,
3.415771999999947,16.054088016034257,-3.7913886540575037,-151.55925512943898,1.622111201286316,-1.2546271085739136,2.4409990310668945,,,,,
3.425158999999951,15.814229202026805,-6.805124977757416,-153.31621857355807,1.244977593421936,-0.9023187756538391,1.6054092645645142,,,,,
3.4345309999999927,15.261075815698488,-10.648729149757209,-155.93249779608703,0.693366289138794,-0.42021602392196655,0.7147389650344849,,,,,
3.443929999999966,14.437490736522241,-15.157180917300174,-159.33522693079874,0,0.16951076686382294,-0.1549053192138672,,,,,
3.453143999999952,13.397996692614848,-20.152353361465437,-163.3404832804803,-0.6651382446289062,0.8751009702682495,-0.9525116086006165,,,,,
3.4625159999999937,12.221256700257396,-25.34070404646801,-167.55125488455735,-1.3251937627792358,1.633311152458191,-1.6133415699005127,,,,,
3.4718509999999583,10.989391966633354,-30.180381206621437,-171.36246469022694,-1.8244788646697998,2.326939105987549,-2.2040109634399414,,,,,
3.48136199999999,9.565746153227392,-34.04984944204676,-174.08120543026763,-2.15909743309021,2.785674571990967,-2.5116047859191895,,,,,
3.490737999999965,7.515474396169632,-36.52458494086117,-175.10132348252426,-2.409071445465088,2.8492445945739746,-2.405628204345703,,,,,
3.5001249999999686,4.548212516572484,-37.64837634680982,-174.37020273739822,-2.5032858848571777,2.6148693561553955,-2.049778461456299,,,,,
3.5095039999999926,0.6903677388162245,-37.69818612204015,-172.18003004594587,-2.633049964904785,2.094966411590576,-1.6049190759658813,,,,,
3.518889999999999,-3.791285818061574,-37.01833253290351,-169.0486055218189,-2.602146625518799,1.5402193069458008,-1.111937403678894,,,,,
3.52828599999998,-8.580811558834561,-36.00642837703902,-165.56562909715822,-2.502795934677124,0.9888519644737244,-0.7171740531921387,,,,,
3.5375869999999736,-13.669634355838086,-35.044853658777555,-161.98059832403368,-2.4476571083068848,0.6082803010940552,-0.37948665022850037,,,,,
3.5471189999999524,-19.428648698020904,-34.2944748933982,-158.12019587826586,-2.088697910308838,0.2701718807220459,-0.24010628461837769,,,,,
3.556355999999994,-26.12019893426921,-33.639199322131496,-153.67554491241071,-1.7634766101837158,-0.22736120223999023,-0.11676990985870361,,,,,
3.565732999999966,-33.84042784040546,-32.68908129974038,-148.66528455220597,-1.4292231798171997,-0.7288689613342285,-0.10220539569854736,,,,,
3.5752959999999803,-42.30582877325673,-31.109425288010076,-143.32703220335978,-0.8614530563354492,-1.1702624559402466,-0.4282311797142029,,,,,
3.584829999999954,-50.629327487290524,-28.736445179975078,-138.12742532569166,-0.4817637503147125,-1.6828471422195435,-0.9314724206924438,,,,,
3.5940499999999815,-57.88543017891458,-25.459843384673523,-133.6751787826661,-0.2810441851615906,-2.0973830223083496,-1.5608961582183838,,,,,
3.60344699999996,-63.18523121258043,-21.475216014497125,-130.6099416448689,-0.09550759196281433,-2.4544575214385986,-2.0184664726257324,,,,,
3.6129739999999515,-65.62326718440411,-17.2063890238124,-129.31769884643847,0.17290544509887695,-2.719881534576416,-1.9136394262313843,,,,,
3.6222249999999576,-65.0603081107697,-13.101828254308831,-129.76618400305154,0.5453305840492249,-2.8981151580810547,-1.6645925045013428,,,,,
3.6316059999999766,-62.424752290276395,-9.65322715650771,-131.58240742048835,0.8646771311759949,-3.1372580528259277,-1.0966041088104248,,,,,
3.6409799999999564,-59.45133072891019,-7.315620735179598,-134.11552632926558,1.3225111961364746,-3.286486864089966,-0.3040428161621094,,,,,
3.650323999999955,-57.7064332687721,-6.526181136594374,-136.9917968585333,1.8483452796936035,-2.978506088256836,0.5584300756454468,,,,,
3.6597439999999892,-58.003715515033875,-7.458799320818219,-140.01503214959527,2.0422730445861816,-2.262767791748047,1.1894607543945312,,,,,
3.6691379999999754,-60.084207045798074,-9.905293917290463,-142.86408428899728,1.5852655172348022,-1.3677754402160645,1.2408738136291504,,,,,
3.6785189999999943,-62.6908546553278,-13.497795471199746,-145.5085826889429,0.9770729541778564,-0.36306965351104736,1.2662838697433472,,,,,
3.687900999999954,-64.49641050865735,-17.63129253657503,-148.26722289326605,0.48473742604255676,0.5883491039276123,1.3452496528625488,,,,,
3.6970669999999473,-64.6338888991534,-21.60623199862785,-151.25003272631636,0.12562528252601624,1.4749910831451416,1.5527361631393433,,,,,
3.7064849999999865,-63.18287396161673,-24.917874812557272,-154.31559011041594,-0.044588565826416016,2.169434070587158,1.6385115385055542,,,,,
3.7158680000000004,-60.996532831070425,-27.355493179805126,-157.13978557236663,-0.21258823573589325,2.585073947906494,1.9012782573699951,,,,,
3.725258999999994,-59.26256655149982,-29.029833495432563,-159.37281234767386,-0.4308595359325409,2.8348095417022705,2.240046739578247,,,,,
3.734643999999946,-58.71829063595187,-30.22093749566139,-160.84429532221617,-0.707814633846283,2.974004030227661,2.5081276893615723,,,,,
3.7440319999999474,-59.339500116826294,-31.23896976586324,-161.52197939645168,-0.9075517058372498,3.022986888885498,2.764058828353882,,,,,
3.753407999999979,-60.80851201677421,-32.40383694851503,-161.32710987441098,-1.050730586051941,3.0231001377105713,2.7558341026306152,,,,,
3.762794999999983,-62.928038808709076,-33.79537435523669,-160.09283021396035,-1.188684105873108,2.9389071464538574,2.5263798236846924,,,,,
3.772167999999965,-65.72248565117778,-35.13916147776771,-157.6527552371037,-1.3534440994262695,2.732573986053467,2.213343620300293,,,,,
3.7815559999999664,-69.21934523111128,-36.059821200896785,-154.18758851237766,-1.5643936395645142,2.3779237270355225,1.7610915899276733,,,,,
3.791016999999954,-73.26549969160955,-36.27534465682224,-150.06438031655844,-1.7489664554595947,1.8827266693115234,1.1874761581420898,,,,,
3.8004029999999602,-77.69213841654982,-35.61904197553722,-145.6869467103292,-1.8995132446289062,1.3361449241638184,0.6548673510551453,,,,,
3.8097119999999904,-82.48936648592615,-34.08779925455639,-141.31135964984242,-1.9929943084716797,0.7788590788841248,0.21896658837795258,,,,,
3.8190979999999968,-87.71967826027084,-31.839787624782858,-136.97532989470577,-1.9203050136566162,0.2659339904785156,-0.24606777727603912,,,,,
3.8284869999999955,-93.10746738458434,-28.97880563590171,-132.68590200895065,-1.8540644645690918,-0.23742353916168213,-0.7550809383392334,,,,,
3.8378639999999677,-98.12755401325656,-25.73485140755793,-128.60036190378852,-1.8679568767547607,-0.5878553986549377,-1.3888487815856934,,,,,
3.847245999999984,-102.20906272353822,-22.49535863158374,-124.90107336651731,-1.7695095539093018,-0.7879108190536499,-2.2126357555389404,,,,,
3.856961999999953,-104.97904035224143,-19.534599526251025,-121.72287269495322,-1.5482804775238037,-1.0962445735931396,-2.8010318279266357,,,,,
3.8661899999999605,-106.79976704832414,-16.97712011587411,-119.21496932923966,-1.3002017736434937,-1.3323748111724854,-3.1715197563171387,,,,,
3.8755839999999466,-108.23716040546931,-14.913215765396407,-117.40120607749975,-0.7839111089706421,-1.466106653213501,-3.3334226608276367,,,,,
3.884954999999991,-109.70442661471371,-13.287326891481015,-116.17825413149018,-0.3906334936618805,-1.5042431354522705,-3.576822519302368,,,,,
3.8943399999999997,-111.5370777665983,-12.125892352808501,-115.48237931308863,-0.18493115901947021,-1.383934497833252,-3.6192522048950195,,,,,
3.903729999999996,-113.77479844311057,-11.57652486972551,-115.33355961292368,0.1472647488117218,-1.1194124221801758,-3.2796871662139893,,,,,
3.9131009999999833,-116.17270729388764,-11.752567606829931,-115.64076545918385,0.5087916851043701,-0.7781112194061279,-2.7913978099823,,,,,
3.922487999999987,-118.56421618473367,-12.589609151688025,-116.2280666556595,0.8078069090843201,-0.3113572597503662,-2.326411008834839,,,,,
3.9318809999999758,-120.91717917885346,-13.791159679290011,-117.02009326249366,0.9413531422615051,0,-1.8138803243637085,,,,,
3.9414109999999596,-123.17796357046724,-15.11149300883969,-118.12087739481603,0.8834142088890076,0.16118168830871582,-1.2943532466888428,,,,,
3.9506379999999695,-125.25536844346485,-16.403240153133254,-119.72263403526125,0.965416431427002,0.3502435088157654,-0.8085159659385681,,,,,
3.9600259999999707,-126.88800958499442,-17.543165569414146,-122.02193281711618,0.8644036054611206,0.32486769556999207,-0.25725680589675903,,,,,
3.9694169999999644,-127.85807206885384,-18.54864370247443,-125.13577746189371,0.6146979928016663,0.043108463287353516,0.38297557830810547,,,,,
3.978794999999991,-128.14783657291954,-19.547948890251106,-128.83906765020595,0.5303797721862793,-0.23662418127059937,1.0827854871749878,,,,,
3.9879949999999553,-127.84852808968496,-20.67290010209915,-132.85458000388917,0.4477708339691162,-0.439980149269104,1.7367360591888428,,,,,
3.9973829999999566,-126.92331928249018,-21.91216836288405,-136.89539237416855,0.351978063583374,-0.6827938556671143,2.5583975315093994,,,,,
4.006771999999955,-125.20578783601908,-23.284663299006496,-140.55865185147474,0.412090927362442,-0.6431995630264282,3.1755027770996094,,,,,
4.016151999999977,-122.47298139108307,-24.808306305084244,-143.30651779530763,0.4278225004673004,-0.27536600828170776,3.1740469932556152,,,,,
4.0255299999999465,-118.25984648634098,-26.418261115892523,-145.19305586983074,0.16629326343536377,0.23103415966033936,2.899171829223633,,,,,
4.03492,-111.98479315801988,-27.994634262000073,-146.91505227867782,0,0.7343513369560242,2.6283154487609863,,,,,
4.044297999999969,-103.4900554829846,-29.2803276349252,-149.20713418624874,-0.2719297409057617,1.2627218961715698,2.4316928386688232,,,,,
4.05383999999998,-93.16952512674554,-29.889333515212062,-152.33311599766532,-0.31582117080688477,1.8350706100463867,2.385713577270508,,,,,
4.063069999999982,-81.98053356103534,-29.187882935344987,-155.818489593176,-0.4110656678676605,2.2440619468688965,2.3823904991149902,,,,,
4.072455999999988,-70.86520485840765,-26.93881119818619,-158.68053637268068,-0.49159687757492065,2.538769245147705,2.3144419193267822,,,,,
4.081976999999995,-60.24072315829622,-23.400009807348663,-160.20136834703672,-0.555265486240387,2.717247486114502,2.2048094272613525,,,,,
4.091217999999969,-50.08739250371487,-19.034139133822435,-160.22391016434182,-0.5728199481964111,2.673920154571533,1.953275442123413,,,,,
4.100603999999976,-40.20218083016133,-14.350372196891039,-158.819413258536,-0.6011662483215332,2.47560453414917,1.7210497856140137,,,,,
4.110132999999962,-30.409338304731342,-9.864631681283525,-156.19156299823976,-0.6266273260116577,2.1491124629974365,1.5044353008270264,,,,,
4.119545999999957,-20.756927240283726,-5.835610806772394,-152.67175537242787,-0.4335159957408905,1.7238517999649048,1.158151388168335,,,,,
4.128937999999948,-11.491849484580138,-2.3098020012574776,-148.5926102704447,-0.3335912525653839,1.249489188194275,0.9206275939941406,,,,,
4.140727999999967,-2.887024583476167,0.735886728587373,-144.51457731706384,-0.2970365285873413,0.7391752600669861,0.8784435987472534,,,,,
4.147836999999981,4.708486954456137,3.186714867708351,-140.49718797746138,-0.4480252265930176,0.21937969326972961,0.8834720253944397,,,,,
4.1572289999999725,10.883364920580128,4.827271310815326,-136.83763052470218,-0.6720026731491089,-0.2908670902252197,0.9907941818237305,,,,,
4.166600999999957,15.380932883542368,5.5866878185112,-133.71147636575287,-0.8957269787788391,-0.720990777015686,1.1756410598754883,,,,,
4.175990999999954,18.238632920317475,5.5700140264144915,-131.18717154009366,-1.078528642654419,-1.1442735195159912,1.275124430656433,,,,,
4.1877889999999525,19.794156970138364,4.981488212466344,-129.16097091099905,-1.3710649013519287,-1.6000670194625854,1.3579480648040771,,,,,
4.194759999999974,20.588646208151324,4.087867925653597,-127.39780569603634,-1.5147128105163574,-1.898945927619934,1.3708341121673584,,,,,
4.203966999999977,21.239792065020268,3.218177287983601,-125.7170676129999,-1.4420210123062134,-2.2439212799072266,1.4835350513458252,,,,,
4.213352999999984,22.145222776319027,2.605954275779483,-124.26711984085941,-1.2904325723648071,-2.474482297897339,1.7260323762893677,,,,,
4.222729999999956,23.455312872380578,2.240417414991829,-123.37836695064458,-0.9691148400306702,-2.4756383895874023,1.9369125366210938,,,,,
4.232252999999957,24.94307649677401,1.820282623861876,-123.23524016220404,-0.6416749954223633,-2.3491098880767822,1.9936727285385132,,,,,
4.241692999999998,26.123939954679617,1.0760823525540235,-123.82038981096068,-0.3999236822128296,-2.155806064605713,2.0193371772766113,,,,,
4.251063999999985,26.612967229635917,-0.020044491654723794,-124.9416812978724,0.03381016105413437,-1.8653626441955566,1.8453378677368164,,,,,
4.2604409999999575,26.482652719327643,-1.4086178792222022,-126.38980540008664,0.3682571351528168,-1.6045533418655396,1.5012836456298828,,,,,
4.269833999999946,25.96075122888655,-3.020547662982277,-128.18244093799896,0.5490092039108276,-1.4277923107147217,1.0802655220031738,,,,,
4.279210999999975,25.25328505567742,-4.872264859274418,-130.48339577252565,0.6987922787666321,-1.2071040868759155,0.6316478848457336,,,,,
4.288608999999951,24.613399361445158,-6.903719193432579,-133.34575180122266,0.8209050893783569,-0.9395426511764526,0.2257114052772522,,,,,
4.297995999999955,24.384523727891448,-8.85390401728355,-136.60682851336946,0.8674664497375488,-0.6131476759910583,-0.2174716591835022,,,,,
4.307199999999966,24.76685747512586,-10.51617823140853,-140.11183305194356,0.849116325378418,-0.2467072457075119,-0.7861376404762268,,,,,
4.3165989999999965,25.926119805392904,-11.867338250871237,-143.7702318065896,0.6222429275512695,0.12112796306610107,-1.3305569887161255,,,,,
4.325947999999983,27.942734577284217,-12.908462571003447,-147.78845074744115,0.31584298610687256,0.41432803869247437,-1.8222033977508545,,,,,
4.337750999999969,30.62202350737764,-13.642701619743539,-151.77310084034207,0,0.6276379823684692,-2.3217344284057617,,,,,
4.344716999999946,33.511290274567244,-14.08330589441324,-155.23029488174316,-0.43829166889190674,0.7808675169944763,-2.7375314235687256,,,,,
4.354104999999947,35.95440838055221,-14.224791866123386,-158.26127213097158,-0.6258821487426758,0.7772470116615295,-3.0938756465911865,,,,,
4.363485999999966,37.367153078948114,-14.182959488377538,-160.48132759076375,-1.192474365234375,1.0261216163635254,-3.214679479598999,,,,,
4.37287299999997,37.32363226239166,-13.903759692879573,-161.49267680629097,-1.294374942779541,0.8493342399597168,-3.407362461090088,,,,,
4.382259999999974,36.086920764981016,-13.35298086976685,-161.09729183830888,-1.6705526113510132,0.9553216695785522,-3.21016788482666,,,,,
4.391642999999988,34.24352744969657,-12.115138341943172,-159.6901935194813,-1.9452077150344849,0.5956393480300903,-2.9120051860809326,,,,,
4.401021999999955,32.572562288976094,-9.978148406360088,-157.52244833151963,-2.0662269592285156,0.5494701862335205,-2.4181551933288574,,,,,
4.410412999999949,31.58325387159154,-6.955048986573661,-154.82531374692428,-2.0064802169799805,0.4141431450843811,-1.8667476177215576,,,,,
4.419802999999945,31.343341131705085,-3.4019255934408688,-151.7168766529196,-1.8917807340621948,0.25471341609954834,-1.144624948501587,,,,,
4.429171999999994,31.542423284076747,0.2756367098713884,-148.6792322080288,-1.7597970962524414,0,-0.32105153799057007,,,,,
4.438743999999986,31.785295150489038,3.8188901890999594,-145.43608096868562,-1.5747841596603394,-0.29328596591949463,0.49361926317214966,,,,,
4.448108999999988,31.84676561369179,7.111471398012282,-142.08516309022482,-1.3758221864700317,-0.46845197677612305,1.1900842189788818,,,,,
4.457505999999967,31.777070441982975,10.145689066900742,-138.82580454556373,-1.1207059621810913,-0.6562466621398926,1.9103894233703613,,,,,
4.466894999999965,31.66365228851796,12.872580914221407,-135.97726664132568,-0.880825400352478,-0.8562726974487305,2.709470748901367,,,,,
4.476275999999984,31.593479758292666,15.154537196619508,-133.9127081951979,-0.5657331943511963,-0.9443877935409546,3.319007396697998,,,,,
4.485652999999957,31.665164308218866,16.84800225716538,-132.91737318326963,-0.19743040204048157,-0.9150310754776001,3.6169352531433105,,,,,
4.495045999999945,31.95532849681041,17.871067693087795,-133.03018345969173,0.04384815692901611,-0.8994942307472229,3.682082176208496,,,,,
4.504436999999996,32.38565705973352,18.295557200307943,-134.02102605143597,0.34857097268104553,-0.8357492089271545,3.540942668914795,,,,,
4.513808999999981,32.84250710817557,18.200301065622323,-135.6355143229934,0.6534559726715088,-0.6110962629318237,3.28350567817688,,,,,
4.5231919999999946,33.12809590519801,17.66751051681703,-137.85083775141624,1.006948709487915,-0.36677706241607666,2.947941541671753,,,,,
4.532575999999949,33.15251459363274,16.725700698102486,-140.6361091926653,1.2672098875045776,-0.07502281665802002,2.4712226390838623,,,,,
4.541954999999973,33.07773516187772,15.43710215988388,-143.99282209942308,1.3290477991104126,0.19809991121292114,1.906559705734253,,,,,
4.5512899999999945,33.07319082840832,13.906435718155967,-147.85767794230742,1.2534282207489014,0.43310368061065674,1.311343789100647,,,,,
4.560724999999991,33.17545669308099,12.191520648983063,-152.27154732392137,1.0676229000091553,0.7183145880699158,0.7251821756362915,,,,,
4.5701159999999845,33.397283056824534,10.250367288142398,-157.13421636968405,0.8843321800231934,1.111194372177124,0.05612313747406006,,,,,
4.579496999999947,33.7881096503509,7.9593080755347705,-162.16167602522347,0.6777116060256958,1.4878482818603516,-0.7081654071807861,,,,,
4.588702999999953,34.26933583172213,5.269797834519598,-166.9875365881585,0.47858691215515137,1.7758342027664185,-1.528794527053833,,,,,
4.600495999999964,34.66180003468509,2.2610884897825287,-171.345039281595,0.16828571259975433,1.9380733966827393,-2.351026773452759,,,,,
4.607471999999973,34.87818678695224,-0.8035585689613702,-175.033379164046,-0.24021245539188385,1.9409284591674805,-3.1612205505371094,,,,,
4.616857999999979,34.94917483833293,-3.4854830840154114,-177.8266342298466,-0.5185404419898987,1.9033398628234863,-3.8456919193267822,,,,,
4.626239999999996,35.014071724600726,-5.356969870761696,-179.56783935814798,-0.7533818483352661,1.8399302959442139,-4.250949382781982,,,,,
4.635576999999955,35.248733153993996,-6.178677092405492,179.92836667028857,-0.9545547962188721,1.7922871112823486,-4.350393772125244,,,,,
4.6450119999999515,35.72833538719541,-6.041775585072991,-179.54683406188775,-1.1449389457702637,1.6035826206207275,-4.204737186431885,,,,,
4.654384999999991,36.23894811533809,-5.222032612388341,-178.08177150472895,-1.4579046964645386,1.2361690998077393,-3.8270981311798096,,,,,
4.663775999999984,36.46202532113697,-3.953715708863295,-176.06288975515469,-1.7749994993209839,0.8530621528625488,-3.331148147583008,,,,,
4.6731079999999565,36.206617517151166,-2.4223704615962256,-173.41227394354996,-1.9569342136383057,0.5034307241439819,-2.8611342906951904,,,,,
4.6825379999999655,35.483162215507164,-0.749743487388878,-170.2165642125739,-2.193713426589966,0.08228373527526855,-2.3438479900360107,,,,,
4.691920999999979,34.43558709097367,1.0661639114766701,-166.4958301515556,-2.3642969131469727,-0.32748767733573914,-1.75693941116333,,,,,
4.701303999999993,33.32468378995265,3.135094317968385,-162.26531780305086,-2.4863247871398926,-0.7064347267150879,-1.0788042545318604,,,,,
4.710683999999958,32.53958384815441,5.532602218138259,-157.5481661717127,-2.6039345264434814,-1.103170394897461,-0.11562889814376831,,,,,
4.720076999999947,32.32236288901486,8.147215063896823,-152.51369403411897,-2.5286171436309814,-1.3403476476669312,0.8568397760391235,,,,,
4.729636999999968,32.80127191473052,10.820661926619696,-147.60373962496374,-2.3252177238464355,-1.520788550376892,1.7866590023040771,,,,,
4.7390309999999545,33.82960691938445,13.36066180737368,-143.2893885202589,-2.0971648693084717,-1.5679267644882202,2.6021788120269775,,,,,
4.748419999999953,35.24249591760649,15.59895076519652,-139.81505702699585,-1.687974214553833,-1.3783141374588013,3.136889696121216,,,,,
4.757794999999987,36.928462604628734,17.357468518345716,-137.2096185713607,-1.17176353931427,-1.151987075805664,3.3879499435424805,,,,,
4.767179999999996,38.85194774763398,18.524109575036917,-135.3853727226162,-0.8700840473175049,-0.9942429065704346,3.534268856048584,,,,,
4.776562999999953,40.93893212629793,19.13617529123381,-134.1758093496616,-0.6616011261940002,-0.8462159633636475,3.5670766830444336,,,,,
4.785907999999949,43.11232913039021,19.260612436309277,-133.46400034545283,-0.37236207723617554,-0.7213115096092224,3.336852550506592,,,,,
4.795313999999962,45.42212733428383,18.931210417296477,-133.21749950652992,-0.16039100289344788,-0.6198496222496033,2.9304590225219727,,,,,
4.804696999999976,47.84321268553771,18.10135419576067,-133.3924916096017,-0.039437055587768555,-0.5106479525566101,2.526499032974243,,,,,
4.814090999999962,50.60885015109385,16.84903632241228,-133.98296886023212,0.03902280330657959,-0.5298208594322205,1.9055960178375244,,,,,
4.823475999999971,53.796932741629846,15.358445533867428,-135.10978077301806,0.4251682460308075,-0.43554094433784485,1.3304815292358398,,,,,
4.832857999999987,57.371798859854195,13.72881164173006,-136.83306243185942,0.7607097625732422,-0.3089029788970947,0.6564568281173706,,,,,
4.842239999999947,61.14003878504262,12.135970248837445,-139.44728130242822,1.1042510271072388,-0.07982605695724487,0.40969863533973694,,,,,
4.8516329999999925,64.17948516756442,10.73011324009898,-143.09890965175708,1.300289511680603,-0.027500271797180176,0.12058478593826294,,,,,
4.860838999999999,65.75044181810935,9.480814329468283,-147.6690332080698,1.068495512008667,-0.1346198320388794,-0.4314429461956024,,,,,
4.872612999999944,65.87431251139658,8.27972551282251,-152.87425252142557,0.8469719290733337,0,-1.1801444292068481,,,,,
4.879601999999977,64.9210116755273,6.738634494328141,-158.4388641109444,0.6465779542922974,0.4517996907234192,-2.155524253845215,,,,,
4.888988999999981,63.72519179361545,4.771399588325383,-164.05635744865822,0.38232553005218506,0.7534210681915283,-2.96336030960083,,,,,
4.898363999999958,63.04664342918445,2.6577369534373854,-169.18388017188775,0.03685424476861954,0.8431975841522217,-3.5361948013305664,,,,,
4.907752999999957,63.272964145603275,0.7882015938463176,-173.32505870993694,-0.10604753345251083,0.775879979133606,-4.032339096069336,,,,,
4.9171309999999835,64.73419686743341,-0.6140935792050546,-176.0943145227611,-0.24471387267112732,0.5548292994499207,-4.232938766479492,,,,,
4.92651699999999,67.34861456520557,-1.3901553557086308,-177.5053074703318,-0.4153927266597748,0.17979365587234497,-4.087454319000244,,,,,
4.935898999999949,70.82927533794991,-1.4955561672905267,-177.72787305051924,-0.4833557605743408,-0.21344667673110962,-3.6688642501831055,,,,,
4.945283999999958,74.85861754431376,-1.0464460547076744,-177.02595966179146,-0.50235915184021,-0.5247066020965576,-3.2162296772003174,,,,,
4.95708099999996,79.06931085974851,-0.2186878950245159,-175.72454842966394,-0.616256833076477,-0.8115406632423401,-2.6098430156707764,,,,,
4.964051999999981,82.86644869356005,0.7534007231308594,-174.0409671145902,-0.7227548360824585,-1.0082793235778809,-2.0588345527648926,,,,,
4.973433,85.86806802882256,1.724217917159899,-172.12626690403044,-0.7321668267250061,-1.1135822534561157,-1.5255154371261597,,,,,
4.98281099999997,87.85826924696441,2.638868465768687,-170.10604434963037,-0.7235347628593445,-1.1087743043899536,-1.1118947267532349,,,,,
4.9922319999999445,89.00117840455238,3.5654644679182437,-168.08195554900132,-0.7747302055358887,-1.0064529180526733,-0.7191289663314819,,,,,
5.001603999999986,89.63493821238943,4.59178789983474,-166.10800026668852,-0.876910924911499,-0.8752581477165222,-0.42382192611694336,,,,,
5.010995999999977,90.13871734570476,5.826492196961424,-164.18562362068087,-0.9442663788795471,-0.6307827830314636,-0.14373432099819183,,,,,
5.020530999999949,90.75181847257528,7.466101333660444,-162.15345140792326,-0.9356066584587097,-0.39290428161621094,0.14502713084220886,,,,,
5.029909999999973,91.65998083468688,9.506212006921812,-159.76451755390642,-0.8820913434028625,0,0.7178831696510315,,,,,
5.039299999999969,92.82507433885563,11.841979562067394,-156.83067207083138,-0.6077921390533447,0.30908530950546265,1.347550630569458,,,,,
5.048678999999993,93.97069673341237,14.464608046046116,-153.47925307518236,-0.3302028477191925,0.8832997679710388,2.0400478839874268,,,,,
5.058062999999947,94.70328104245377,17.58000364829902,-150.05645447345836,-0.1161748468875885,1.255431890487671,2.553558826446533,,,,,
5.067084999999963,94.88499448834183,21.038968529431667,-147.10018769257613,-0.08873248100280762,1.487364411354065,3.0118837356567383,,,,,
5.0768379999999524,94.3362774068675,24.491287407972397,-145.00143802120408,-0.230575829744339,1.6265238523483276,3.0883195400238037,,,,,
5.086221999999964,93.03494034126155,27.557555926638805,-143.97520242794283,-0.2659386396408081,1.7830843925476074,3.309962749481201,,,,,
5.09560799999997,91.23330588125084,29.742248662289736,-143.65833553587515,-0.32593056559562683,1.8996310234069824,3.507168769836426,,,,,
5.104987999999992,89.60753636098363,30.75330057045402,-143.5540160043899,-0.15574675798416138,1.931762933731079,3.2495741844177246,,,,,
5.114373999999998,88.18909703842594,30.59605050707674,-143.69498782718344,0,1.9146682024002075,2.7251315116882324,,,,,
5.12375899999995,86.876227127569,29.68926053887235,-144.37222244105706,0.1741982400417328,1.7682573795318604,2.288241386413574,,,,,
5.133144999999956,85.35036904041729,28.293908266197835,-145.91695423243647,0.4234926998615265,1.4264640808105469,1.6620115041732788,,,,,
5.14251999999999,83.48073848290187,26.470622163489992,-148.397410307708,0.5367566347122192,1.1660826206207275,1.2174427509307861,,,,,
5.15190199999995,80.99325128754252,24.311405352136962,-151.7791437922304,0.5893330574035645,0.9279636740684509,0.6135007739067078,,,,,
5.1612480000000005,77.89043303240274,21.943956174636057,-156.03178015593946,0.5223003625869751,0.9362649917602539,-0.08672232180833817,,,,,
5.170664999999985,74.28347178569388,19.4076603772274,-161.0161842091973,0.3520555794239044,0.9469698071479797,-0.8928018808364868,,,,,
5.180064999999956,70.31508120514835,16.619250704234105,-166.4780791444929,0.1476661115884781,0.9324057698249817,-1.603032112121582,,,,,
5.1892689999999675,65.9395702682131,13.567941052980146,-172.1689101275107,-0.06429867446422577,1.1009626388549805,-2.3583147525787354,,,,,
5.1986479999999915,61.22800944487645,10.268701942501195,-177.77581806657568,-0.47272491455078125,1.4645206928253174,-3.025601387023926,,,,,
5.208028999999954,56.54003226633839,6.846612587079475,177.16445227607483,-0.8933866024017334,1.878119945526123,-3.435884952545166,,,,,
5.217416999999955,52.08971820799001,3.350057539427604,173.18739319207415,-1.1049549579620361,2.301651954650879,-3.7409605979919434,,,,,
5.226800999999966,47.84326308955722,-0.3373587046267225,170.5982758150865,-1.2405281066894531,2.4729065895080566,-3.6089019775390625,,,,,
5.2386059999999475,43.60854394568046,-4.3454134339726735,169.64773077886937,-1.4038621187210083,2.341752529144287,-3.2312772274017334,,,,,
5.24555799999996,39.1095526491455,-8.602662103676243,170.26695654013125,-1.475479245185852,1.9468255043029785,-2.8285179138183594,,,,,
5.254947999999956,34.07880778858233,-12.864650143681347,172.10859074066553,-1.6007635593414307,1.4040186405181885,-2.42128849029541,,,,,
5.26433099999997,28.207682197100166,-16.875028829657246,174.83418292583428,-1.744284987449646,0.7869551181793213,-1.9747180938720703,,,,,
5.273713999999984,21.210444685135602,-20.537442026203554,178.24256949338576,-1.8870480060577393,0.3363441824913025,-1.4869072437286377,,,,,
5.2855069999999955,13.075605374313314,-23.794162578248887,-177.60706970654414,-2.0599734783172607,-0.07549306750297546,-0.8197820782661438,,,,,
5.29248199999995,3.8579543762923483,-26.52979228037391,-172.6626218381551,-2.2612969875335693,-0.3459230363368988,-0.4803118407726288,,,,,
5.301870999999949,-6.2047193425532505,-28.677827666133552,-167.0620045853501,-2.173006057739258,-0.595451831817627,-0.5654810667037964,,,,,
5.31366799999995,-16.63653003464997,-30.229060385027836,-160.99634069769172,-2.0479848384857178,-1.0775492191314697,-0.6787631511688232,,,,,
5.320646999999951,-26.924982033052917,-31.077526957037676,-154.61938950573736,-2.0360803604125977,-1.6573749780654907,-0.8682981729507446,,,,,
5.330016999999998,-36.44065152586316,-31.251213650922203,-148.5994229933779,-1.6253381967544556,-2.092501640319824,-1.2372243404388428,,,,,
5.34181099999995,-44.88491342465069,-31.001910628265087,-143.24280632370952,-1.2558574676513672,-2.3577661514282227,-1.4637434482574463,,,,,
5.348785999999961,-51.939153918865244,-30.399966455279678,-138.7462268479841,-1.010387897491455,-2.287442684173584,-1.6570556163787842,,,,,
5.358167999999978,-56.958366642219865,-29.52636254191685,-135.46031072709795,-0.4957585036754608,-2.06072998046875,-2.076529026031494,,,,,
5.367550999999992,-59.85739571389019,-28.508881152005916,-133.4034015121193,-0.1554652452468872,-2.016799211502075,-2.186584711074829,,,,,
5.379350999999986,-61.10117139980159,-27.294894112974873,-132.49734930089195,0.07651561498641968,-1.9318636655807495,-2.184781312942505,,,,,
5.386503999999945,-61.24938222461977,-25.939757709783212,-132.63845959115088,0.48854827880859375,-1.9121930599212646,-1.975096344947815,,,,,
5.405266999999981,-61.287164620212096,-23.357847294401243,-134.82174231868262,1.2536942958831787,-1.9986381530761719,-1.1042287349700928,,,,,
5.414660999999967,-62.688374916797635,-22.698811251314666,-136.21525586806675,1.6397958993911743,-1.9118720293045044,-0.652152419090271,,,,,
5.424038999999993,-65.51196913469438,-22.811987969605255,-137.55107197051692,2.0627782344818115,-1.691899061203003,-0.15148988366127014,,,,,
5.433425,-69.57401699629688,-23.716933173095644,-138.78573361838278,2.421832323074341,-1.3285038471221924,0.30391019582748413,,,,,
5.442767999999944,-74.25643018503386,-25.40083366385969,-139.97798988182262,2.431946039199829,-0.910293698310852,0.6418502330780029,,,,,
5.452197999999953,-78.6978378312872,-27.788589301169786,-141.26877045306867,2.09700345993042,-0.5959949493408203,1.0493159294128418,,,,,
5.461542999999949,-82.37285494419261,-30.60283924497292,-142.74400281241435,1.6629972457885742,-0.13534420728683472,1.5637617111206055,,,,,
5.470916999999986,-85.25744571133971,-33.74133533038222,-144.34734935505938,1.4441282749176025,0.3858429491519928,2.092369556427002,,,,,
5.480165999999997,-87.74672775955257,-37.096236145023376,-145.7338997721292,1.2229324579238892,0.8504374623298645,2.591165065765381,,,,,
5.489544999999964,-90.54333405273928,-40.33217816014869,-146.46224778400887,0.9038814306259155,1.2339153289794922,2.927922010421753,,,,,
5.4989439999999945,-94.26720482177303,-43.14936853911182,-146.26292410457867,0.5080282092094421,1.3236334323883057,2.943746566772461,,,,,
5.5083079999999995,-98.78014509361317,-45.30299408617142,-145.21150853751692,0.11948633193969727,1.2846078872680664,3.148590326309204,,,,,
5.517703999999981,-103.39943768398928,-46.805512616520986,-143.68459911671263,-0.17711621522903442,1.0401272773742676,3.0793097019195557,,,,,
5.5270759999999655,-107.19807772863196,-47.928477479867034,-141.95997665029606,-0.48660698533058167,0.743052065372467,2.9370288848876953,,,,,
5.536470999999949,-109.74622443400922,-48.88314736714726,-140.1022505963627,-0.8141361474990845,0.5471779108047485,2.760024070739746,,,,,
5.5458169999999996,-111.04980324288917,-49.641053699396544,-138.05495929001893,-1.0538365840911865,0.596048891544342,2.6167266368865967,,,,,
5.555243999999959,-111.50601983692881,-50.00955164913235,-135.7778818211019,-1.1624178886413574,0.7521094679832458,2.4662535190582275,,,,,
5.564621999999986,-111.74321616177296,-49.780074429407875,-133.22697488557546,-1.280861735343933,0.824490487575531,2.284177780151367,,,,,
5.574078999999983,-112.30087143688093,-48.82374257480497,-130.42069226366107,-1.4778659343719482,0.8670262694358826,1.9554017782211304,,,,,
5.583456999999953,-113.38455670932655,-47.10053573001653,-127.38985208034579,-1.703679084777832,0.7138468623161316,1.4845707416534424,,,,,
5.592846999999949,-114.81307268676811,-44.76173456909484,-124.3158765271677,-1.860973596572876,0.4736779034137726,0.9765464663505554,,,,,
5.6021429999999555,-116.18468287266313,-42.052594302291574,-121.32897359066719,-1.8949453830718994,0.11585259437561035,0.37694862484931946,,,,,
5.611527999999964,-117.25663295766934,-39.16506242973561,-118.3804519615697,-1.7808051109313965,-0.27335113286972046,-0.3395775258541107,,,,,
5.6208709999999655,-117.92660138499954,-36.29584635172236,-115.49291149372165,-1.6079787015914917,-0.7030962109565735,-1.0979915857315063,,,,,
5.630481999999972,-118.24911945289065,-33.707936465249745,-112.75602911914548,-1.4075031280517578,-1.0425548553466797,-1.6609833240509033,,,,,
5.6398719999999685,-118.39860653348204,-31.66749340977152,-110.50098607513165,-1.0120199918746948,-1.3489906787872314,-2.3123857975006104,,,,,
5.651657,-118.5488889348747,-30.266331621955384,-108.79071712391361,-0.6211470365524292,-1.5234657526016235,-2.870001792907715,,,,,
5.65862599999997,-118.78196365113156,-29.5266341878659,-107.58620590407912,-0.2490786910057068,-1.5221952199935913,-3.226160764694214,,,,,
5.668020999999953,-119.0218995910406,-29.467716824249187,-106.91039621012334,0.18174436688423157,-1.3634495735168457,-3.3352091312408447,,,,,
5.67740299999997,-119.1334338147285,-30.080750766773644,-106.80065414787435,0.5494371652603149,-1.0756261348724365,-3.1699068546295166,,,,,
5.68677699999995,-119.0126249801746,-31.42115190630299,-107.18931331496468,0.7926082015037537,-0.6918724179267883,-2.872791051864624,,,,,
5.696156999999971,-118.6842938297447,-33.52111409402683,-107.93767273494366,0.763884425163269,-0.3761547803878784,-2.4153547286987305,,,,,
5.705552999999952,-118.20423847045831,-36.33090368554513,-109.05616330741732,0.45894038677215576,-0.05572479963302612,-1.7481489181518555,,,,,
5.714927999999986,-117.54114359392524,-39.72755040811234,-110.62914831067327,0.03234177827835083,0.3986424207687378,-0.9700276851654053,,,,,
5.7241299999999455,-116.61832335656614,-43.50702712447999,-112.66658621836507,-0.41444072127342224,0.8038320541381836,-0.1671786606311798,,,,,
5.733600999999965,-115.1870588315214,-47.363687929738035,-115.22913348408822,-0.9921218156814575,1.1192281246185303,0.6320623159408569,,,,,
5.742982999999981,-112.65589761722117,-51.24945165440539,-118.51934269754648,-1.4086769819259644,1.5636181831359863,1.4074323177337646,,,,,
5.752356999999961,-108.25209560854655,-55.01135886142999,-123.09292368579088,-1.808208703994751,2.334529399871826,2.4163475036621094,,,,,
5.761739999999975,-101.84513568275594,-57.747204411414245,-128.9082722035353,-2.140864849090576,2.007744073867798,2.309454917907715,,,,,
5.7735439999999585,-94.20690998390049,-59.25015377412625,-134.61933287067026,-2.039647102355957,2.2971935272216797,2.3838229179382324,,,,,
5.780516999999975,-87.01012313014681,-59.60883315072614,-139.03226587670923,-1.9488909244537354,2.2161216735839844,1.9900425672531128,,,,,
5.789896999999996,-80.69526443536255,-59.126790833224376,-142.0580281944679,-1.8892161846160889,2.1914358139038086,2.120856523513794,,,,,
5.799157999999977,-75.77807811249394,-58.20924496296266,-143.91912704654018,-1.7305848598480225,2.164978265762329,2.1612608432769775,,,,,
5.808588999999984,-72.71620855188031,-57.06436778262687,-144.6561535256534,-1.618140697479248,1.9865493774414062,1.987146019935608,,,,,
5.817969999999946,-71.27068994021863,-55.66634855846712,-144.39252095150934,-1.6056017875671387,1.7814615964889526,1.620609998703003,,,,,
5.827315999999996,-70.63259275007066,-53.94129178179045,-143.55131676905415,-1.5443286895751953,1.4644396305084229,1.1497454643249512,,,,,
5.8367379999999685,-69.78216980895111,-51.75249079064735,-142.54807425824117,-1.503201961517334,1.0132769346237183,0.7186426520347595,,,,,
5.846132999999952,-67.85422795586784,-48.898371072926444,-141.73022056552912,-1.5531423091888428,0.6340253353118896,0.3800121247768402,,,,,
5.855519999999956,-64.42922267009132,-45.36175451793094,-141.4120639424337,-1.419654369354248,0.31733638048171997,0.24598607420921326,,,,,
5.8649129999999445,-59.71209726951521,-41.255225090395015,-141.56727698748443,-1.0466508865356445,-0.03525751829147339,0.1864488124847412,,,,,
5.874453999999957,-54.24713959464672,-36.76893147400568,-141.95368807411245,-0.6798490285873413,-0.5364775061607361,0.2722586989402771,,,,,
5.883835999999974,-48.667116038839815,-32.146263500121336,-142.30814537265505,-0.31712523102760315,-1.0683238506317139,0.21357464790344238,,,,,
5.893224999999973,-43.2812954902371,-27.600787785612205,-142.60441609625715,0.14009776711463928,-1.4930319786071777,0.1061357855796814,,,,,
5.902606999999989,-38.375366663225634,-23.23270866761974,-142.9040942338811,0.6827883720397949,-2.0232455730438232,0.2429293394088745,,,,,
5.911981999999966,-34.32440318616039,-19.152595562677213,-143.24776175351693,1.191298484802246,-2.58613657951355,0.46377187967300415,,,,,
5.9213869999999815,-31.262078834515616,-15.564689682362674,-143.70089326277377,1.5753343105316162,-2.93583607673645,0.6573848724365234,,,,,
5.930768999999998,-28.991488937482323,-12.560669194917892,-144.33494235144687,1.9097158908843994,-3.073211193084717,0.8269184231758118,,,,,
5.940155999999945,-27.042469771358167,-10.084167342653016,-145.26884042439488,2.0980069637298584,-2.985691547393799,0.9023407101631165,,,,,
5.951942999999972,-24.89034074938359,-8.14613831973978,-146.77985847773286,2.2309556007385254,-2.8551549911499023,0.9918203949928284,,,,,
5.958909999999946,-22.236360174615637,-6.715994557045721,-149.01562347155692,2.2049543857574463,-2.490676164627075,1.071274995803833,,,,,
5.968294999999955,-18.951681925023646,-5.64059579119925,-151.9513281165885,2.01279878616333,-1.8688938617706299,1.158164143562317,,,,,
5.977637999999956,-15.02279852316008,-4.753440758906695,-155.41146653402578,1.7193148136138916,-1.1410248279571533,1.2232520580291748,,,,,
5.987071999999955,-10.619126436680826,-4.013149767258076,-159.3207034335227,1.3927936553955078,-0.3361339867115021,1.1452643871307373,,,,,
5.996443999999997,-6.054627839542709,-3.532557299054162,-163.44571501815318,1.0202794075012207,0.444193571805954,1.0868357419967651,,,,,
6.005831000000001,-2.0795670455305104,-3.6042519198682963,-167.54746810281426,0.74892258644104,1.0266119241714478,0.8070151805877686,,,,,
6.017633999999987,0.8420640598869225,-4.682037873690835,-171.4297656550413,0.7257688641548157,1.9424766302108765,0.876388669013977,,,,,
6.024606999999946,2.3605950931358715,-6.898692674655988,-175.19604834604044,0.48573628067970276,2.481337070465088,0.7082744836807251,,,,,
6.033800999999983,2.9116649558590812,-9.740790192341644,-178.77338372832654,0.2226707488298416,2.908679485321045,0.10563737154006958,,,,,
6.043100999999979,3.4226496089520335,-12.536848753052862,178.04970829836967,-0.06798623502254486,3.2284016609191895,-0.8511948585510254,,,,,
6.052571999999998,4.82689232953458,-14.827462351003149,175.41174770341516,-0.4594084620475769,3.3639352321624756,-1.6257314682006836,,,,,
6.061958999999945,7.541047525172927,-16.32015947639734,173.38570277712768,-0.8705120086669922,3.634333848953247,-2.023540735244751,,,,,
6.071352999999988,11.168422940965435,-16.866693556718072,171.90521537038268,-1.0143415927886963,3.8582043647766113,-2.023681640625,,,,,
6.083146999999997,14.65923046035475,-16.77086667533853,171.01991063962348,-1.0844767093658447,3.9781596660614014,-1.913033127784729,,,,,
6.090122999999949,16.927504800839053,-16.74604322250064,170.86741324738614,-1.2973178625106812,3.7498672008514404,-1.831344485282898,,,,,
6.099495999999988,17.510349073393535,-17.415201099769245,171.60070743053677,-1.5966458320617676,3.2196786403656006,-1.648045301437378,,,,,
6.108865999999978,16.56325632267298,-18.934998460399445,173.0818422655987,-1.845595359802246,2.5790493488311768,-1.2904478311538696,,,,,
6.118257999999969,14.434204824256579,-21.043469058134008,175.1411736995388,-2.0878207683563232,1.8874694108963013,-1.0280416011810303,,,,,
6.127631999999949,11.500981282944743,-23.3926809035009,177.57191663265604,-2.205807685852051,1.1194735765457153,-0.6370744705200195,,,,,
6.137023999999997,7.984466694259984,-25.76222241933262,-179.7377460021977,-2.140934705734253,0.2709123492240906,-0.21770000457763672,,,,,
6.146409999999946,4.0854964241299045,-27.95527259505294,-176.7386150248545,-1.8878920078277588,-0.5140883326530457,-0.11515003442764282,,,,,
6.155752999999947,0.24696940430195133,-29.600657079392718,-173.4903592023663,-1.5624339580535889,-1.2505879402160645,0.3168502449989319,,,,,
6.165172999999982,-3.30730856669748,-30.3200561043586,-170.17037190647807,-0.8647361397743225,-2.3955671787261963,0.36334657669067383,,,,,
6.174549999999954,-6.220818211157295,-30.124395667032992,-166.8060902636777,0.051506638526916504,-3.0202016830444336,0.17154693603515625,,,,,
6.183943999999997,-8.605437726401002,-29.331182420000818,-163.34541666412483,0.5354248285293579,-3.2652993202209473,-0.037752509117126465,,,,,
6.195938999999953,-10.4747861925903,-28.377508954573717,-160.20245153526298,0.8857471346855164,-3.4407498836517334,0.08033084869384766,,,,,
6.2028929999999605,-11.983030663804444,-27.703032909588806,-157.84052272238233,1.1035372018814087,-3.50545597076416,0.19020342826843262,,,,,
6.212276999999972,-13.198812276469168,-27.56873785490269,-156.518996384472,1.116105556488037,-3.3985445499420166,0.08002424240112305,,,,,
6.221650999999952,-14.146013962267984,-28.126037628180807,-156.2840036996731,1.1367852687835693,-3.1455636024475098,-0.2063698172569275,,,,,
6.231052999999974,-14.824890886351465,-29.4039976961111,-157.01349490147012,0.9801052808761597,-2.7485246658325195,-0.36661991477012634,,,,,
6.240432999999996,-15.31452088388957,-31.251811025380345,-158.52970017715583,0.7402331233024597,-2.368168830871582,-0.3848458230495453,,,,,
6.249766999999963,-15.686173341915914,-33.35124643069639,-160.65641984754174,0.4869788885116577,-1.7947192192077637,-0.47040894627571106,,,,,
6.259206999999947,-15.738720825761995,-35.31526661677865,-163.3330102611811,0.3030015230178833,-1.1614097356796265,-0.5072253942489624,,,,,
6.2779709999999795,-14.473906822401132,-37.93146166048556,-170.28053391618613,0.10848969221115112,0,-0.46749040484428406,,,,,
6.287368999999956,-13.22380356500691,-38.689156438179545,-174.24585440787484,0,0.6933960914611816,-0.19132471084594727,,,,,
6.296550999999965,-11.690912162927805,-39.300871195796326,-178.36745765060377,-0.27130475640296936,1.388759970664978,0.14307749271392822,,,,,
6.305936999999972,-9.996356897401235,-39.894982160772784,177.54296983583762,-0.6738425493240356,2.0473594665527344,0.39025694131851196,,,,,
6.315320999999983,-8.368646956819493,-40.52132022348459,173.81166222889348,-0.8803192377090454,2.6672685146331787,0.6541090607643127,,,,,
6.324705999999992,-7.223160171491185,-41.252505414834566,170.77002882153803,-1.0041590929031372,3.352173089981079,0.8513869643211365,,,,,
6.334038999999962,-6.812795313805045,-42.196296090366644,168.5040471618486,-1.0347533226013184,3.5780601501464844,0.9545789957046509,,,,,
6.34347299999996,-7.496045997495934,-43.40328217893585,167.21398080460028,-1.1548858880996704,3.524446725845337,0.8852022290229797,,,,,
6.35283899999996,-9.38793902831084,-44.775121717074335,167.09126920761878,-1.260655164718628,3.3990583419799805,0.6755561828613281,,,,,
6.362229999999954,-12.041941877337853,-46.131992643866596,168.12233594941694,-1.2453033924102783,3.104055404663086,0.4309959411621094,,,,,
6.371630999999979,-14.885732212908884,-47.23316272320441,170.1313352139245,-1.2092005014419556,2.774986505508423,0.29416191577911377,,,,,
6.380999999999972,-17.460759881528162,-47.88531613158236,172.78557342317174,-1.2317655086517334,2.3440287113189697,0.2113666534423828,,,,,
6.390387999999973,-19.53095477626194,-47.996287979975286,175.84276219422338,-1.349695086479187,1.8694976568222046,0.1313486099243164,,,,,
6.399778999999967,-21.2081366290304,-47.57776496494912,179.2086481179903,-1.4875271320343018,1.440613865852356,0.04918670654296875,,,,,
6.409072999999978,-22.743047667812345,-46.71100885313303,-177.19770657900088,-1.565809965133667,1.0070874691009521,-0.059930503368377686,,,,,
6.418562999999949,-24.386240930803453,-45.480329975208065,-173.36207373456725,-1.6504669189453125,0.5183695554733276,-0.10032451152801514,,,,,
6.427933999999993,-26.29656971324757,-43.94996651499112,-169.3367544541683,-1.6946829557418823,0.033714085817337036,-0.057878732681274414,,,,,
6.43731699999995,-28.50857038558253,-42.21903704699429,-165.23776007057302,-1.693847417831421,-0.42342206835746765,-0.06151282787322998,,,,,
6.456082999999978,-32.91061775749642,-38.63708910337988,-157.3858520522647,-1.465705394744873,-1.2350375652313232,-0.28780096769332886,,,,,
6.465538999999978,-34.51308351301541,-36.91312968381185,-153.84829409832133,-1.0717753171920776,-1.71979820728302,-0.48850327730178833,,,,,
6.474747999999977,-35.50093276801638,-35.14797864884556,-150.61365858835754,-0.7850496768951416,-2.260159730911255,-0.6461398005485535,,,,,
6.486821999999961,-35.850727782870436,-33.2790441983118,-147.89929572510042,-0.35230427980422974,-2.6647989749908447,-0.7757024765014648,,,,,
6.493787999999995,-35.61449099493427,-31.329867244364415,-145.95293781345308,0.13516885042190552,-2.974942207336426,-0.8405633568763733,,,,,
6.503165999999965,-35.00706415059819,-29.379617640582328,-144.88511464606026,0.6152077913284302,-3.2186601161956787,-0.8925827741622925,,,,,
6.512511999999958,-34.26199921412667,-27.508448121952878,-144.60655454446893,1.0433506965637207,-3.199462413787842,-0.8969945907592773,,,,,
6.52189199999998,-33.53900774674916,-25.89099165753771,-144.93260757369276,1.3555139303207397,-3.114147663116455,-0.7371533513069153,,,,,
6.53131499999995,-32.88318894971729,-24.627851354450446,-145.86062259275042,1.603591799736023,-2.8719475269317627,-0.6252776384353638,,,,,
6.54070999999999,-32.186836250369225,-23.69863754819068,-147.38645710589046,1.8272526264190674,-2.396557331085205,-0.56973797082901,,,,,
6.550077999999985,-31.3100426423031,-22.978440938769786,-149.56030193165594,2.050342082977295,-1.8224811553955078,-0.4027579128742218,,,,,
6.559478999999953,-30.240686471206374,-22.337975567950963,-152.3409430974527,2.2153537273406982,-1.1850594282150269,-0.14247828722000122,,,,,
6.568862999999965,-28.959221206150385,-21.715779853211917,-155.68652258136558,2.3157005310058594,-0.4537026882171631,0.23218786716461182,,,,,
6.578250999999966,-27.442791944327293,-21.133545793839865,-159.57372254824446,2.1609482765197754,0.15707886219024658,0.7421179413795471,,,,,
6.5876199999999585,-25.955218299419688,-20.799291256049244,-163.7914544738466,1.8328479528427124,0.7505060434341431,1.2751880884170532,,,,,
6.597004999999967,-24.8848641485983,-21.079219391825852,-167.9441513236414,1.50254487991333,1.349122405052185,1.8043677806854248,,,,,
6.606395999999961,-24.41437274422613,-22.192735591294912,-171.63541626732737,1.240235686302185,1.8584284782409668,1.9638569355010986,,,,,
6.618201999999997,-24.139019013110996,-23.96624077325749,-174.7218782118885,0.7230283617973328,2.292757987976074,2.092904567718506,,,,,
6.624986999999976,-23.83315783358375,-26.020877828783554,-177.36386249679447,0.11859166622161865,2.737483024597168,1.7634243965148926,,,,,
6.634360999999956,-23.160859156759088,-28.04179525587345,-179.67996312452487,-0.31347358226776123,3.1755921840667725,1.3435420989990234,,,,,
6.643759999999986,-21.846967135482277,-29.838316055887642,178.3290327609623,-0.6900765299797058,3.4589319229125977,1.001934289932251,,,,,
6.653136999999958,-19.696531803562465,-31.19385628792289,176.72463298609443,-1.2118779420852661,3.5503478050231934,0.944115161895752,,,,,
6.662531999999999,-16.99491356994645,-31.986206491457825,175.44625340941033,-1.6762778759002686,3.6956329345703125,0.8983326554298401,,,,,
6.671912999999961,-14.447491065315894,-32.39806033518305,174.74609309029498,-1.9527130126953125,3.738168239593506,0.7827557921409607,,,,,
6.681271999999979,-12.666985964982041,-32.88121416803937,175.03916215964801,-2.2243101596832275,3.4952359199523926,0.5553428530693054,,,,,
6.690608999999995,-11.911487432877703,-33.67124149991465,176.41246845712672,-2.399806022644043,3.0229146480560303,0.2873525619506836,,,,,
6.700044999999989,-12.194773608554643,-34.59507539081916,178.6905468154175,-2.536860227584839,2.4177117347717285,-0.02868473529815674,,,,,
6.7094339999999875,-13.253150565336533,-35.32528726202465,-178.22196278738735,-2.5626771450042725,1.6588538885116577,-0.38129913806915283,,,,,
6.71890099999996,-14.721575115008587,-35.64088333699684,-174.52946991120373,-2.5498385429382324,0.8641030788421631,-0.5717684030532837,,,,,
6.728286999999966,-16.347681184170206,-35.46366341549258,-170.46023198422282,-2.4990100860595703,0.10163891315460205,-0.6422249674797058,,,,,
6.737584999999967,-17.956484587046937,-34.83314429772308,-166.16552499298604,-2.331655979156494,-0.5723956823348999,-0.7276394963264465,,,,,
6.746969999999976,-19.4732021847905,-33.85877540756384,-161.8153966385061,-2.0172510147094727,-1.2393819093704224,-0.8556177020072937,,,,,
6.756359999999972,-20.909084762652608,-32.61992002103807,-157.4956833787698,-1.636094570159912,-1.8051246404647827,-0.8519423604011536,,,,,
6.765739999999994,-22.177330937173075,-31.10161681843896,-153.37535386293922,-1.062636137008667,-2.291975498199463,-0.7863134145736694,,,,,
6.775126,-23.086422753453768,-29.27631365111934,-149.63619801418994,-0.5546642541885376,-2.8675382137298584,-0.6130659580230713,,,,,
6.7869249999999965,-23.471189756541996,-27.20330912897431,-146.50229370490047,0,-3.407999038696289,-0.4000214636325836,,,,,
6.794074999999964,-23.19601485707387,-25.134582823083253,-144.19971305209845,0.5285565853118896,-3.687225341796875,-0.27726924419403076,,,,,
6.803453999999988,-22.11569147642162,-23.378093629785454,-142.83211331268322,0.8490619659423828,-3.6706647872924805,-0.12715208530426025,,,,,
6.81283099999996,-20.120548158179908,-22.035452716839394,-142.35438984882413,1.0763709545135498,-3.3630881309509277,0,,,,,
6.822166999999979,-17.237913983249065,-21.074922351706086,-142.6581397687183,1.1227068901062012,-3.012110710144043,0.039908766746520996,,,,,
6.83160799999996,-13.544825510230012,-20.3526146966075,-143.72752386638436,0.9497907161712646,-2.637896776199341,0.037912964820861816,,,,,
6.840985999999987,-9.335928732821106,-19.726961756740153,-145.44539018301103,0.816089391708374,-2.04964017868042,-0.23978561162948608,,,,,
6.850193999999988,-4.8957183260925206,-19.154088401063714,-147.72573744900114,0.5939620137214661,-1.4107091426849365,-0.5539637804031372,,,,,
6.859577999999999,-0.5709648898234947,-18.691349136723872,-150.4736257536683,0.10262197256088257,-0.5561524033546448,-0.9086583256721497,,,,,
6.868999999999971,3.474689658449791,-18.3760960383181,-153.62275936740505,-0.3050091862678528,0.4385342001914978,-1.324973702430725,,,,,
6.878334999999993,7.002853216692478,-18.2968423035114,-157.16911785180486,-0.9151601791381836,1.3477556705474854,-1.506730556488037,,,,,
6.887721999999997,9.448499716527383,-18.49074462227988,-160.7975634545066,-1.4676154851913452,2.2501518726348877,-1.7641311883926392,,,,,
6.897100999999964,10.57787121753722,-18.79038488005037,-163.77959856356176,-1.5962789058685303,2.938185930252075,-1.9153976440429688,,,,,
6.908911999999987,10.437469581707798,-18.97120861429067,-165.684850298346,-1.5460731983184814,3.245651960372925,-2.078052282333374,,,,,
6.915877999999964,9.564467286169846,-18.732627650122083,-166.41131660391616,-1.6746244430541992,3.127370595932007,-2.0059974193573,,,,,
6.92525599999999,8.649018391097693,-17.872875837396975,-166.1870231741329,-1.5881538391113281,2.8766183853149414,-1.8481072187423706,,,,,
6.934643999999992,8.118284420544622,-16.405697529831187,-165.2618818696494,-1.4319243431091309,2.4431228637695312,-1.5503993034362793,,,,,
6.944025999999951,7.9217684704109965,-14.488865972084122,-163.82838193704902,-1.1971590518951416,1.842228651046753,-1.1634278297424316,,,,,
6.953403999999978,7.667502957748663,-12.32584196948072,-162.05743493002439,-0.8525097370147705,1.2226297855377197,-0.7510537505149841,,,,,
6.962990999999988,6.910325478134611,-10.076185297607186,-160.03002696806675,-0.4965517520904541,0.5986545085906982,-0.26982319355010986,,,,,
6.972352999999998,5.485350566202512,-7.837967264642806,-157.83237737933226,-0.059757791459560394,-0.05614738166332245,0.2948791980743408,,,,,
6.981748999999979,3.4785398324993304,-5.693902846055297,-155.60520681594107,0.456128865480423,-0.7516281008720398,0.9055753350257874,,,,,
6.991120999999964,1.0543176665846574,-3.791787809635827,-153.59586206745055,1.1089723110198975,-1.4735761880874634,1.5594778060913086,,,,,
7.000501999999983,-1.5639866889277503,-2.344446619993289,-152.0415326835959,1.682952642440796,-2.0394091606140137,1.9699571132659912,,,,,
7.009895999999969,-4.025139934849959,-1.5346448643276671,-151.2119889602776,2.165802240371704,-2.3342061042785645,2.0440404415130615,,,,,
7.031074999999987,-6.750913222373975,-1.3757894324802153,-152.28362757490706,2.636565923690796,-2.1775431632995605,1.7334318161010742,,,,,
7.038042999999959,-6.790805822609598,-1.7356562229314283,-154.14796104986286,2.537567138671875,-1.636168122291565,1.6351072788238525,,,,,
7.047384999999963,-6.3546115093092235,-2.562638701810871,-156.84603536029906,2.2591359615325928,-0.7866156101226807,1.4666579961776733,,,,,
7.056816999999967,-5.872019306722116,-4.090448937565297,-160.15319660615137,1.9270278215408325,0.2577194273471832,1.291621208190918,,,,,
7.066195999999991,-5.849220812706494,-6.508960933097856,-163.7082250695824,1.4982599020004272,1.2124313116073608,0.9638630151748657,,,,,
7.07557799999995,-6.4641547653996865,-9.854229720955097,-167.1193893943225,1.0103037357330322,1.9858179092407227,0.591157853603363,,,,,
7.084780999999964,-7.631485762699586,-13.882721575548079,-170.16834256285986,0.506701648235321,2.7062952518463135,0.24317055940628052,,,,,
7.094177999999999,-9.035741403295509,-18.07941523975739,-172.795577558653,0.03565308451652527,3.288114309310913,-0.21195298433303833,,,,,
7.1035589999999615,-10.037153900590384,-21.863470706985378,-174.82625931547062,-0.383868932723999,3.649976968765259,-0.6298514604568481,,,,,
7.112896999999975,-10.155212981491056,-24.74624598104861,-176.0799983190605,-0.6965215802192688,3.8694140911102295,-0.7626681923866272,,,,,
7.122328999999979,-9.541994143863214,-26.48483510328967,-176.43598778056378,-0.8793105483055115,3.9401347637176514,-0.8348416686058044,,,,,
7.131659999999954,-8.695903826382445,-27.16921195494622,-175.78369714386642,-0.9575577974319458,3.780113458633423,-0.8115997314453125,,,,,
7.141085999999973,-8.232787061653823,-27.131145408908935,-174.1500830883332,-1.0394387245178223,3.3409202098846436,-0.7553743124008179,,,,,
7.150471999999979,-8.511512329861736,-26.727815304105334,-171.5638967815209,-1.1397905349731445,2.7220113277435303,-0.5983210206031799,,,,,
7.159870999999953,-9.597608216285654,-26.273347251115958,-168.34455336452098,-1.2300478219985962,2.0353808403015137,-0.4849543571472168,,,,,
7.169235999999955,-11.353071017742542,-25.996994337514618,-164.85741555616565,-1.336493730545044,1.3095860481262207,-0.4737464189529419,,,,,
7.178621999999962,-13.718756427658883,-26.008960103216975,-161.3253600894352,-1.527977466583252,0.5584006309509277,-0.5761348009109497,,,,,
7.188012999999955,-16.76023005698375,-26.213799314387597,-157.75370059309952,-1.725899577140808,-0.13144397735595703,-0.6543211936950684,,,,,
7.197394999999972,-20.440309346511338,-26.357500415507456,-154.14325141660896,-1.7237565517425537,-0.7187029719352722,-0.6307551860809326,,,,,
7.2067839999999705,-24.559015280385594,-26.253788324591667,-150.66034867106382,-1.5757336616516113,-1.2454488277435303,-0.5753645896911621,,,,,
7.216168999999979,-28.912115591087588,-25.83089397809378,-147.29165259662753,-1.383174180984497,-1.776694416999817,-0.6429582834243774,,,,,
7.225511999999981,-33.25878406749586,-25.219382688097802,-144.04043217479557,-1.0133988857269287,-2.2715399265289307,-0.8123677968978882,,,,,
7.2349309999999605,-37.42438569027951,-24.626093236629963,-141.04066512140642,-0.6399601697921753,-2.749119281768799,-0.9193140268325806,,,,,
7.24448799999999,-41.29958390430594,-24.135990089970186,-138.58021384038275,-0.34424906969070435,-3.1143054962158203,-0.9871676564216614,,,,,
7.256289999999979,-44.8045848922101,-23.841037820937068,-136.80162517287675,0,-3.263582944869995,-1.1298874616622925,,,,,
7.263261999999997,-47.935153205559416,-23.88238639245665,-135.79673793520772,0.3388461470603943,-3.2054083347320557,-1.317514419555664,,,,,
7.272652999999991,-50.76353201320843,-24.285106647235608,-135.5570852554123,0.5713050365447998,-3.0625722408294678,-1.4373730421066284,,,,,
7.282036999999946,-53.433932236183445,-24.954617219944208,-136.05796600215547,0.7822340726852417,-2.781747341156006,-1.4809852838516235,,,,,
7.291401999999948,-56.08236852816143,-25.919334746968744,-137.24357716656706,0.9710127115249634,-2.376828908920288,-1.5208046436309814,,,,,
7.300779999999975,-58.75241205883632,-27.3059566979692,-138.9424777929769,1.0682039260864258,-1.878456711769104,-1.445706844329834,,,,,
7.310177999999951,-61.512765827354286,-29.167758634487956,-140.97415473967922,1.0268890857696533,-1.3038408756256104,-1.1921464204788208,,,,,
7.319561999999962,-64.29680751933802,-31.44976227249147,-143.34636709091737,0.8544023036956787,-0.7609482407569885,-0.802839994430542,,,,,
7.328894999999989,-66.9618058123338,-34.02341897086445,-146.05099169655313,0.6050727963447571,-0.2313491702079773,-0.3428807556629181,,,,,
7.33834399999995,-69.34493429892478,-36.78532460455688,-149.18678293695845,0.22491759061813354,0.2548154890537262,0.1528046727180481,,,,,
7.347541999999976,-71.20094094597029,-39.564394643029935,-152.74589865014127,-0.259973406791687,0.6936701536178589,0.7637004852294922,,,,,
7.356910999999968,-72.44592805890713,-42.104166540013324,-156.65873809879523,-0.7590614557266235,1.091917872428894,1.4151928424835205,,,,,
7.366310999999996,-73.22642052133008,-44.16719160841398,-160.63009074409544,-1.1347436904907227,1.3956050872802734,2.146629810333252,,,,,
7.375676999999996,-74.09124191377978,-45.52034722758771,-164.09067570650748,-1.3801167011260986,1.648594617843628,2.8745527267456055,,,,,
7.385064,-75.66641165430967,-46.061628176370846,-166.43943595797882,-1.5865401029586792,1.5443339347839355,3.6004719734191895,,,,,
7.396874999999966,-78.0480173651729,-46.09639323935164,-167.35889699685436,-1.6943209171295166,1.373319149017334,3.928279161453247,,,,,
7.403790999999956,-80.78689560112619,-46.02272533314064,-166.88533600951868,-1.7031887769699097,1.2190357446670532,3.7633163928985596,,,,,
7.413221999999962,-83.33612494856577,-45.86858716038893,-165.3284006700116,-1.7318181991577148,1.100537896156311,3.407923698425293,,,,,
7.422597999999994,-85.21193100229004,-45.430199851540856,-163.08311040126188,-1.6488776206970215,1.0204241275787354,2.959960460662842,,,,,
7.431993999999975,-86.26084585419858,-44.5485758553939,-160.48823378318028,-1.5482032299041748,0.8929105401039124,2.418670654296875,,,,,
7.441383999999971,-86.71993442715139,-43.16319118421992,-157.7170884183255,-1.4524439573287964,0.7848134636878967,1.8019435405731201,,,,,
7.450745999999981,-86.98504965269447,-41.25330950850842,-154.8361328627632,-1.2986781597137451,0.627534031867981,1.1277676820755005,,,,,
7.46013099999999,-87.2770492297264,-38.887322251932666,-151.93268322898223,-1.0257632732391357,0.3448851704597473,0.5422914624214172,,,,,
7.469719999999995,-87.54618864073763,-36.1536677285337,-149.1754282745168,-0.5865448117256165,-0.056091904640197754,0,,,,,
7.479080999999951,-87.64093418530331,-33.18529659422758,-146.74803530217693,-0.16525191068649292,-0.5402126312255859,-0.5809949636459351,,,,,
7.497852999999964,-87.32654759238285,-27.468752835600586,-143.2148703514549,1.086421012878418,-1.3704617023468018,-1.6176116466522217,,,,,
7.5072529999999915,-86.77309450690166,-25.171235300321925,-142.21979253037316,1.6613574028015137,-1.7196402549743652,-2.0566115379333496,,,,,
7.516614999999945,-85.974285963266,-23.4728456673001,-141.89575277530017,2.1509921550750732,-1.9473795890808105,-2.339193344116211,,,,,
7.52601199999998,-85.12094284103856,-22.46062132058219,-142.32315773116082,2.5254502296447754,-1.9903713464736938,-2.4095194339752197,,,,,
7.535352999999986,-84.37127006945516,-22.19303952385672,-143.48525057871558,2.720090389251709,-1.744492530822754,-2.202378034591675,,,,,
7.54474799999997,-83.80431728440075,-22.727277824212187,-145.28867272379767,2.6948814392089844,-1.4603257179260254,-1.7723950147628784,,,,,
7.554151999999988,-83.6244012383966,-24.092430254054793,-147.49036281607542,2.47098445892334,-1.07916259765625,-1.189842700958252,,,,,
7.563546999999971,-83.9402494557041,-26.28542900883028,-149.85490669853542,2.0613226890563965,-0.6112082004547119,-0.5287122130393982,,,,,
7.572922999999946,-84.58853654384487,-29.212000017652777,-152.2745772397954,1.5996147394180298,-0.13684046268463135,0.09484443813562393,,,,,
7.582262999999955,-85.32515951478128,-32.651146524838104,-154.69194783014717,1.0842900276184082,0.309686541557312,0.6287446022033691,,,,,
7.5915149999999585,-85.9398072382141,-36.35299968862085,-157.07526583205305,0.51474928855896,0.7028259634971619,1.1195576190948486,,,,,
7.600888999999995,-86.33114393873257,-40.09573628429749,-159.40866521757044,0.07767641544342041,1.1215870380401611,1.6488158702850342,,,,,
7.610285999999974,-86.50724209408992,-43.675706496455355,-161.63364940676914,-0.2970132529735565,1.39974045753479,2.2588233947753906,,,,,
7.619664,-86.61341903193953,-46.88577554480753,-163.5721588721573,-0.5662785172462463,1.7009518146514893,2.7836966514587402,,,,,
7.629044999999962,-86.70774042407837,-49.55344411325231,-165.03006645854097,-0.7405258417129517,1.8391084671020508,3.142077684402466,,,,,
7.638426999999979,-86.66997375570693,-51.610895687762294,-165.89500242040725,-0.9709702134132385,1.8348134756088257,3.3743302822113037,,,,,
7.647813999999983,-86.27218349533126,-53.1502247466285,-166.26595782498123,-1.156461477279663,1.7859845161437988,3.4509544372558594,,,,,
7.657203999999979,-85.5446917745137,-54.2994376148281,-166.14312244048955,-1.2803246974945068,1.7261316776275635,3.347991466522217,,,,,
7.6665819999999485,-84.78151818623918,-55.08927636448494,-165.32093083025617,-1.3902839422225952,1.6376566886901855,3.139970064163208,,,,,
7.675968999999952,-84.42800477604132,-55.50074727136001,-163.54863110349518,-1.5010006427764893,1.4872446060180664,2.8393476009368896,,,,,
7.685350999999969,-84.91675360281504,-55.57490820069731,-160.69466878940187,-1.6437411308288574,1.2580019235610962,2.4443368911743164,,,,,
7.694731999999988,-86.43615096223586,-55.27069178124854,-156.82054398678972,-1.8520317077636719,0.9104272127151489,1.9924854040145874,,,,,
7.7041189999999915,-88.83586868999802,-54.416500345847005,-152.1866210658021,-2.1279513835906982,0.5151417255401611,1.5817557573318481,,,,,
7.71342199999998,-91.61770218010975,-52.9870718340359,-147.28271546588027,-2.1793065071105957,0.16205260157585144,1.0764557123184204,,,,,
7.722883999999965,-94.27059241039109,-51.08461742508804,-142.45177846652876,-2.218173027038574,-0.2236819863319397,0.5752944350242615,,,,,
7.732279999999946,-96.412866235154,-48.83110906121384,-137.91464081702492,-2.3031585216522217,-0.6195310354232788,0,,,,,
7.741652999999985,-97.88386002781877,-46.39415010272626,-133.70773596122532,-2.0895352363586426,-0.940413236618042,-0.6420220136642456,,,,,
7.753458999999964,-98.7343301972736,-43.912725130434346,-129.7988535950167,-1.7832753658294678,-1.2641242742538452,-1.2679736614227295,,,,,
7.760372999999959,-99.1395961156328,-41.52830349322715,-126.2777529896886,-1.4279388189315796,-1.5701019763946533,-1.8645516633987427,,,,,
7.769996999999989,-99.29767097645954,-39.402861750963154,-123.33893134221753,-0.9719856977462769,-1.801654577255249,-2.4913153648376465,,,,,
7.779373999999962,-99.33513305579302,-37.708428618809435,-121.13720921288967,-0.47720766067504883,-1.9433681964874268,-3.027066946029663,,,,,
7.788752999999986,-99.30652004913377,-36.564859670446154,-119.7063624860387,0,-1.9277530908584595,-3.3990721702575684,,,,,
7.7981379999999945,-99.2463996703194,-36.04837291035299,-119.07430976441523,0.3021239638328552,-1.714216947555542,-3.4763941764831543,,,,,
7.807521999999949,-99.11499310577031,-36.12653679351236,-119.16508735064758,0.5279414057731628,-1.4633946418762207,-3.4207677841186523,,,,,
7.816906999999958,-98.8234888919231,-36.67612941899278,-119.90052740438651,0.5939088463783264,-1.1863149404525757,-3.265392303466797,,,,,
7.826236999999992,-98.42434150431085,-37.63092959406707,-121.23898590218077,0.5528109073638916,-0.867985188961029,-2.905658721923828,,,,,
7.8356659999999465,-98.00967901936073,-38.92186179550215,-123.23079099558348,0.5158475041389465,-0.544998824596405,-2.4706602096557617,,,,,
7.845054999999945,-97.63069121931913,-40.4637943265561,-125.75574798105005,0.45341575145721436,-0.2756103277206421,-2.0349369049072266,,,,,
7.854434999999967,-97.27179192669148,-42.17512486842012,-128.75533452028878,0.27384793758392334,0,-1.5253664255142212,,,,,
7.86382999999995,-96.79492753152081,-44.003458061275914,-132.32773617572545,-0.05835920572280884,0.2762550115585327,-0.8925912380218506,,,,,
7.873194999999953,-95.99934456587913,-45.849793910350456,-136.55350319694753,-0.5669779777526855,0.4306597113609314,-0.10896718502044678,,,,,
7.882417999999973,-94.81926457854266,-47.616902874198104,-141.35775340964761,-1.0539121627807617,0.7087774872779846,0.8635522127151489,,,,,
7.891795999999999,-93.40813471979989,-49.26658829205341,-146.44969420748484,-1.3975322246551514,1.062025785446167,1.9932448863983154,,,,,
7.9011749999999665,-92.09515180459334,-50.64483164121353,-151.2239781858097,-1.612600326538086,1.371788740158081,3.0102438926696777,,,,,
7.91056199999997,-91.18023919982043,-51.5537133642667,-155.00618862886878,-1.7391937971115112,1.5888514518737793,3.928288221359253,,,,,
7.919936999999948,-90.86731440189297,-51.86495444883492,-157.39515784826165,-1.7959959506988525,1.6139287948608398,4.363296031951904,,,,,
7.929324999999949,-91.09151739828734,-51.5259806805314,-158.34169432565434,-1.7747606039047241,1.5377657413482666,4.341888427734375,,,,,
7.938665999999955,-91.59335750378112,-50.55142204145509,-158.08354288866101,-1.6491413116455078,1.3761552572250366,4.058075904846191,,,,,
7.948093999999969,-92.20224854823257,-49.053005594121394,-156.8717459017348,-1.5524741411209106,1.074056625366211,3.565636157989502,,,,,
7.957466999999951,-92.78200248084704,-47.161891738843096,-154.8997421341734,-1.4726073741912842,0.7247449159622192,2.9353935718536377,,,,,
7.966862999999989,-93.24797709211435,-45.01038351426112,-152.38422199704073,-1.3936161994934082,0.4108370840549469,2.1992239952087402,,,,,
7.976249999999993,-93.5935644828236,-42.65145935969805,-149.57481636017334,-1.1687177419662476,0.14111381769180298,1.3854278326034546,,,,,
7.985655999999949,-93.81327196820101,-40.059774411266496,-146.68251976584946,-0.8575829863548279,-0.17548495531082153,0.5960097908973694,,,,,
7.995170999999971,-93.83167098784897,-37.23559506261559,-143.9679882419206,-0.4096577763557434,-0.48516833782196045,-0.17028801143169403,,,,,
8.00457799999998,-93.58466105761879,-34.259157586852965,-141.63717046082016,0.1544155478477478,-0.8431071043014526,-1.0001957416534424,,,,,
8.01396299999999,-93.04810702743521,-31.30780452823673,-139.8230742056292,0.6530216336250305,-1.2842652797698975,-1.8323795795440674,,,,,
8.023252999999954,-92.30771915940618,-28.693827616985825,-138.66810200521505,1.1507606506347656,-1.7101613283157349,-2.3673336505889893,,,,,
8.033276,-91.44523908998637,-26.683832947365865,-138.31712780098016,1.622731328010559,-1.988429307937622,-2.778571844100952,,,,,
8.042118999999957,-90.57533214013397,-25.481049236593435,-138.77442783142155,1.996605634689331,-1.9587085247039795,-2.9906582832336426,,,,,
8.051502999999968,-89.83624423347048,-25.093533649470565,-139.9615569567769,2.1200852394104004,-1.6644413471221924,-2.87787127494812,,,,,
8.060884999999985,-89.23061315756028,-25.393525872471596,-141.7987359915099,2.1051011085510254,-1.3070961236953735,-2.569969654083252,,,,,
8.070267999999999,-88.79942609537729,-26.19333300390246,-144.17665969283937,1.9907846450805664,-0.8943377733230591,-2.072779893875122,,,,,
8.082056999999963,-88.57494491970466,-27.339104154060646,-147.02892292889996,1.8096940517425537,-0.5193654894828796,-1.4353264570236206,,,,,
8.089039999999954,-88.55175901295401,-28.68631511347816,-150.27941366115041,1.6252117156982422,-0.173198401927948,-0.7934426069259644,,,,,
8.09840399999996,-88.59357279785456,-30.104694021039418,-153.79722975164043,1.410395860671997,0.11113035678863525,-0.16347245872020721,,,,,
8.10781099999997,-88.55004074548265,-31.5253652071427,-157.55597313287205,1.2263531684875488,0.3209439516067505,0.42447584867477417,,,,,
8.117137999999954,-88.27760795375464,-32.918634672630354,-161.3498531023851,1.0647494792938232,0.5347918272018433,0.8648939728736877,,,,,
8.12657299999995,-87.6053175002649,-34.207527344840585,-165.16313273894662,0.8793526887893677,0.6615802049636841,1.200586199760437,,,,,
8.135775999999964,-86.42508930064608,-35.28640327514815,-168.9414441702467,0.6262245774269104,0.7112259864807129,1.5709834098815918,,,,,
8.14515799999998,-84.79627678355071,-36.17543629148589,-172.6589771903431,0.3383968472480774,0.7614262104034424,2.0117809772491455,,,,,
