timestamp,roll,pitch,yaw,acc_x,acc_y,acc_z,gyro_x,gyro_y,gyro_z,acc_mag,gyro_mag,markers
0.0,-152.46182979372034,22.16835842467342,106.51752445284218,0.05950189968542538,-0.047143096044930506,-0.031178846182310187,0.0,0.0,0.0,,,none
0.00950899999999777,-152.7753484590447,22.168595188428668,106.42924905241719,0.07604465574164704,-0.04797191681562406,-0.05997670134165455,0.0,0.0,0.0,,,none
0.01901499999999956,-153.16912268423542,22.074880880161476,106.34376633451137,0.08593713364381393,-0.012606028668495124,-0.089457677446591,0.04109116187648889,-0.04400258588596803,0.0212278818666881,,,none
0.02843299999999971,-153.4958531577395,21.90435966244623,106.31209321446832,0.10620422429935271,0.024082742297959384,-0.13179151400261233,0.049803597785566825,-0.04862735644632599,0.024493140810897325,,,none
0.03800099999999773,-153.86103168599385,21.728674774064846,106.25263603916828,0.14708764434641133,0.04691860428043854,-0.14007587567934773,0.052778816178300436,-0.05530740632464667,0.02187717623287725,,,none
0.0474509999999988,-154.24425723504032,21.60518596078112,106.16633245926637,0.1960242140694533,0.055268045871527643,-0.13769269867685696,0.04363121497378632,-0.06158108565206078,0.016818130392090003,,,none
0.05701299999999776,-154.6152147394871,21.546891977471706,106.07683800053847,0.240960318913532,0.046557636253603187,-0.14618812366525716,0.030390379814817053,-0.06310929755181446,0.00939464882626883,,,none
0.06657500000000027,-155.3194654738232,21.58624618021199,105.8244669225742,0.289971857529047,0.031647151613719435,-0.12289884893239782,0.02252857384506923,-0.05724368701869429,0.0013552109420586008,,,none
0.07609300000000019,-155.9687714981306,21.674803434664625,105.57324942230377,0.3268472147579656,-0.004042874970165982,-0.11412281045301502,0.0,0.0,0.0,,,none
0.08560499999999749,-156.51431901577473,21.789501543081773,105.3720459497218,0.3471781542690391,-0.015473690462442104,-0.11197485396145232,0.0,0.0,0.0,,,none
0.10457899999999754,-157.1894859869739,21.904013642584285,105.17509003661223,0.32548896148918866,0.0485389569170116,-0.0953959617583999,0.0,0.0,0.0,,,none
0.1141299999999994,-157.30749496864172,21.89334815911126,105.156344124103,0.29067083695598583,0.0733441713927547,-0.08835329226712726,0.0,0.0,0.0,,,none
0.12325899999999734,-157.29450669806198,21.873113044061085,105.15433230125109,0.2463816063335206,0.10950360574195309,-0.08243204039987653,-0.02252282929147682,0.06145500325602529,-0.0013640146168268769,,,none
0.133108,-157.16524785509796,21.88550878566815,105.13925670160941,0.2059763421879806,0.11872481445600254,-0.0716444513837432,-0.03647868706086662,0.07083823928848526,-0.01265083436905223,,,none
0.14260200000000012,-156.9428345318138,21.973466951812394,105.10781294496834,0.1756507006717924,0.10307782155627247,-0.052378102670660925,-0.05155936792091303,0.0758997776929043,-0.02293824395947598,,,none
0.15217299999999767,-156.64475841977037,22.15529327105009,105.08190578503192,0.1532718689443551,0.07057991252606596,-0.02931230113283866,-0.06551624170997429,0.07869791273371494,-0.02765017599578767,,,none
0.1711539999999978,-155.87086212227376,22.69616726156601,105.16992631593463,0.12125340861433044,-0.01737893352223676,0.022287997734131974,-0.07129677744326306,0.08523822745364587,-0.016622879672357826,,,none
0.18069999999999808,-155.4125666209479,22.978965229611287,105.33119517624887,0.10160883431953754,-0.05345476540625726,0.0425698251002686,-0.0655150645990552,0.08827029045791633,-0.0034287894379464163,,,none
0.19017900000000054,-154.92570614268772,23.22426557562236,105.57212243905384,0.07316259258654044,-0.06834628311796942,0.04697642132786918,-0.05676335688752647,0.08882606797180698,0.009898917544484092,,,none
0.1995939999999976,-154.44400095364873,23.40592158737272,105.85240944221377,0.021648058787823412,-0.07623637859926996,0.034304429809774245,-0.045531734916400286,0.08445965209939682,0.01788098671823602,,,none
0.2092359999999971,-154.01178871763838,23.52506110669182,106.11794875796929,0.026673667619500296,-0.0436883218134917,0.0516914007112547,-0.03538323138040517,0.07280505015487983,0.018673328099068,,,none
0.21874199999999888,-153.65627312338916,23.61215020548976,106.32342021508023,-0.004411996840642277,-0.021515343648732355,0.06061875290876875,-0.030456751092276454,0.056850099944142606,0.012669395621953395,,,none
0.22826099999999983,-153.40242721019573,23.69897264161576,106.4429016386508,-0.012755059960706201,0.015427404772173265,0.041934137537808,0.0,0.0,0.0,,,none
0.23772599999999855,-153.26808356450502,23.798167370352218,106.48164440205451,0.015007033406161972,0.021578633920985742,0.03726492074756906,0.0,0.0,0.0,,,none
0.24727299999999985,-153.23818087449862,23.914256691289026,106.47146036841984,0.02621480738011871,0.001923266511704951,0.0581915620339863,0.0,0.0,0.0,,,none
0.2567409999999981,-153.2759161912463,24.03647673206793,106.45837579723882,0.05598965650843656,-0.0014497419482457847,0.05813537464803072,0.0,0.0,0.0,,,none
0.26620399999999833,-153.34820654139844,24.14041540991058,106.48036825339007,0.08234365337517986,-0.002859700397485796,0.05979189339885142,0.0,0.0,0.0,,,none
0.2757729999999974,-153.42488588579405,24.211820562976246,106.55897730376954,0.0982782422176741,-0.0014732841489931662,0.05783329739739274,0.0,0.0,0.0,,,none
0.28531899999999766,-153.48720980963512,24.251628234530994,106.68759316429338,0.0998453746579538,0.005129702047174149,0.05275635165890239,0.0,0.0,0.0,,,none
0.2948399999999971,-153.5317881514248,24.270445481193075,106.83346717093725,0.09029984450130418,0.01477089366221615,0.042429350854116546,0.0,0.0,0.0,,,none
0.3043009999999988,-153.57626486025399,24.29361980296997,106.94889918713349,0.0763316277481352,0.033551006069221886,0.021803261144749356,0.0,0.0,0.0,,,none
0.3138149999999982,-153.6406858132641,24.34590036056463,106.9993178590445,0.06884118883557323,0.026937547047441782,0.012451688634817788,0.0,0.0,0.0,,,none
0.3233239999999995,-153.7449596592964,24.435658455678983,106.96741923251298,0.06947034416465571,0.021971494676236186,0.0016323943794523598,0.0,0.0,0.0,,,none
0.3328699999999998,-153.89659776657547,24.55721851169139,106.86702950756785,0.0776912133038934,0.019239813983229364,-0.009038735734338159,0.0,0.0,0.0,,,none
0.34234599999999915,-154.08761691541835,24.688099832056125,106.73776177657886,0.09159398892786386,0.020109950748188145,-0.015489247653383768,0.0,0.0,0.0,,,none
0.35189499999999896,-154.28945908396182,24.81029202320888,106.6356227384874,0.10465098982494693,-0.015570662732970964,-0.030077732892720293,0.0,0.0,0.0,,,none
0.36141199999999785,-154.4798174749131,24.90458050285495,106.60363501190021,0.10790771449826707,0.009889481101798473,-0.04600096185035223,0.0,0.0,0.0,,,none
0.37091099999999955,-154.64034248053747,24.965048466417247,106.65614627162886,0.11423934661978441,0.0106853677929243,-0.048343573303096285,0.0,0.0,0.0,,,none
0.3804249999999989,-154.76529105508342,24.997548479394563,106.77424035312492,0.1132434524831474,0.010924841679300358,-0.047661055523801885,0.0,0.0,0.0,,,none
0.38992999999999967,-154.8611359194489,25.023324740427658,106.91805399626547,0.10903560060848165,0.010866369836225848,-0.04570161106989471,0.0,0.0,0.0,,,none
0.3994459999999975,-154.94810114025418,25.050183130060397,107.0315027042793,0.10673071195666306,0.010910772631995249,-0.044565740374769444,0.0,0.0,0.0,,,none
0.4089129999999983,-155.0387777976958,25.08911736742477,107.07645692178221,0.10413292810534668,0.010781390798594359,-0.04329813439014862,0.0,0.0,0.0,,,none
0.4184570000000001,-155.13516888325375,25.146892305902274,107.04207572098812,0.1126747228569011,0.02460671653466049,-0.02022822698751467,0.0,0.0,0.0,,,none
0.4279699999999984,-155.22634702952746,25.220647796104807,106.9558700803751,0.11273142295785495,0.02568999707618407,-0.01762868656360426,0.0,0.0,0.0,,,none
0.44695199999999957,-155.31475546442934,25.371676517293363,106.79634442387862,0.10049534190358196,0.025758405710531628,-0.009237540767170779,0.0,0.0,0.0,,,none
0.456509999999998,-155.27971930351853,25.438703877810465,106.8039024591153,0.08399011655227101,0.021700203281547845,-0.0073743182051924806,0.0,0.0,0.0,,,none
0.4660219999999988,-155.20320467627982,25.493748753616064,106.88371715939813,0.06100887751459563,0.006021957332847195,-0.025074230820556577,0.0,0.0,0.0,,,none
0.47553499999999715,-155.11244214206536,25.532064319281684,107.00898455541939,0.045656874256952036,0.004558293247818424,-0.018834874162440247,0.0,0.0,0.0,,,none
0.4849969999999999,-155.0384489698964,25.567228024922844,107.13829421961121,0.03841953406194752,0.0038884476785681914,-0.01589753791507052,0.0,0.0,0.0,,,none
0.49455599999999933,-155.00861922475787,25.604738323677022,107.23547829772806,0.03801807018189632,0.0038927132631228485,-0.015748095407897546,0.0,0.0,0.0,,,none
0.5040130000000005,-155.03570248625164,25.65034553812874,107.2759138815952,0.046738535648261054,0.004815063226837582,-0.019329986162052188,0.0,0.0,0.0,,,none
0.513539999999999,-155.11307925441594,25.70895202945539,107.26045233623968,0.06918276494325819,0.021644374099305416,0.0002949753198325705,0.0,0.0,0.0,,,none
0.5230779999999982,-155.21538021072104,25.780618209277,107.21704176191768,0.08270495390803566,0.027556232974877796,0.003812470551667024,0.0,0.0,0.0,,,none
0.5325950000000006,-155.31263967109535,25.86031188423227,107.1774561045815,0.09115068599349463,0.030810544542185278,0.005191676977901359,0.0,0.0,0.0,,,none
0.5420719999999974,-155.37938587138908,25.939728580784013,107.16824974344442,0.0914718110942726,0.03105171279663543,0.005484000388184096,0.0,0.0,0.0,,,none
0.5516170000000002,-155.4021025785542,26.015235139219335,107.20360255135103,0.08151119102353686,0.0275075517084465,0.004442974763472311,0.0,0.0,0.0,,,none
0.5611229999999985,-155.3875518762846,26.079423220003935,107.27691636380844,0.06898000880990769,0.02611163117329161,0.009085922909756334,0.0,0.0,0.0,,,none
0.5706369999999978,-155.35006519146282,26.12895250053476,107.36717073255817,0.05672214164529112,0.024985863395561227,0.014098413709030885,0.0,0.0,0.0,,,none
0.5801449999999981,-155.3149578942029,26.166071831105445,107.44837108204004,0.049018187533839706,0.024373281841381492,0.01740980697917625,0.0,0.0,0.0,,,none
0.589658,-155.30047384139644,26.193435316800006,107.50760156691739,0.0437866194518029,0.024014079711685545,0.019778158573905393,0.0,0.0,0.0,,,none
0.5990879999999983,-155.31442222994212,26.21252613555445,107.53851916022847,0.041691829706890934,0.023379901340851238,0.019761789493944047,0.0,0.0,0.0,,,none
0.6086339999999986,-155.3649591536009,26.226974253526603,107.54797738733366,0.04512227200529052,0.025533468861741935,0.02180207877873616,0.0,0.0,0.0,,,none
0.6181479999999979,-155.44409594462175,26.2406753461231,107.55179320801312,0.05096685154210409,0.02774631360902898,0.022486601189266816,0.0,0.0,0.0,,,none
0.6276609999999998,-155.54334130271084,26.257876024918534,107.56623776374776,0.05789687581156321,0.028184637969313725,0.019047821748536958,0.0,0.0,0.0,,,none
0.6372199999999992,-155.65691504072745,26.27201553651721,107.60078910510573,0.06483264350058733,0.030602449604976507,0.019378245164358116,0.0,0.0,0.0,,,none
0.646725,-155.78201758564163,26.28143680853214,107.65371809677028,0.07092930430986233,0.03257575691782621,0.019301052857007932,0.0,0.0,0.0,,,none
0.6562289999999997,-155.92570340340475,26.294556474852186,107.71662762722772,0.07865382327881032,0.03415828198819046,0.017411330424228322,0.0,0.0,0.0,,,none
0.6657519999999977,-156.11245795580945,26.31849614955911,107.77800651599144,0.09498333493148522,0.04501908211236784,0.028037033019966972,0.0,0.0,0.0,,,none
0.6752059999999993,-156.3601330015551,26.360808165179566,107.82681919798434,0.11605818106378292,0.056803323726510785,0.03742456493473657,0.0,0.0,0.0,,,none
0.6847209999999997,-156.6719180061482,26.40518540637844,107.8588434646433,0.1307424288536102,0.0849637713053375,0.08212126677815108,0.0,0.0,0.0,,,none
0.6942829999999987,-156.9645746950464,26.523230160218148,107.93222628573744,0.1293555741624483,0.040494164477704535,-0.0026057662180869697,0.0,0.0,0.0,,,none
0.7037479999999974,-157.29989734555423,26.714130765540755,107.98726770004295,0.16531814775882667,0.021287205121511613,-0.061210080401099945,0.0,0.0,0.0,,,none
0.713238999999998,-157.47089672902206,26.90000627225114,108.16298263593453,0.1807306897321473,-0.0955082088783622,-0.16172077916506217,-0.02587677359902481,-0.04060699325455561,0.038790988684855476,,,none
0.7226789999999994,-157.87073744583756,27.197802469381397,108.28113887953673,0.19646123399077312,0.04625189555184152,-0.03446013617822046,-0.044230340232417786,-0.041666485295227165,0.0482425885266735,,,none
0.7321969999999993,-157.7911629656537,27.452398194060567,108.50358267904703,0.13669223962925556,-0.07603744794395939,-0.34108566809955165,-0.052835624932281375,-0.002678003842233295,0.025943356440965827,,,none
0.7415599999999998,-157.6327717913917,27.439626114743735,108.60438079417568,0.059026205835243144,-0.32458214845979444,-0.9160416573296691,0.0,0.0,0.0,,,none
0.751061,-157.6555399837395,26.99939056496369,108.537556565918,0.009145909146531421,-0.19920318986632035,-0.9996466309378025,0.08483684533557827,0.02425897618781551,-0.019240254712991924,,,none
0.760742999999998,-157.65030645024484,26.449424310856205,108.42288140664449,0.027141391886562373,0.08846351153156144,-0.934559613331148,0.10413332533005323,0.03581167592015698,-0.02776682523075148,,,none
0.7701729999999998,-157.57411075341986,26.13103110641502,108.47305981140114,-0.04563433606225998,0.2571551907234389,-1.16753013137944,0.056121690296712115,0.033187579297340286,-0.0132243603221408,,,none
0.7795989999999975,-157.44298876515901,25.993953262551628,108.60454991226241,-0.05408364467277227,0.3702230566980563,-1.0740043601770846,0.0,0.0,0.0,,,none
0.7891179999999984,-157.14195517082945,26.04869249539666,108.70068914479984,0.03822722850852301,0.13696112924170512,-1.0513924366992335,-0.027706618611904352,0.047810955701607094,-0.0071942424753577575,,,none
0.7988019999999985,-156.74523972988865,26.333091177601794,108.93311007069187,0.07263248933993872,-0.03811671738291768,-0.9483115934743811,-0.07688721533351023,0.04909687957085765,0.011478399087615334,,,none
0.8081399999999981,-156.26107113345034,26.541215051925107,109.1775923883877,0.07349582035383082,-0.24761842728581707,-0.9847404680541267,-0.06772521217255822,0.06843751069274363,0.005791619892839584,,,none
0.8176360000000003,-155.80224068161561,26.435464844154996,109.31708591043174,0.09926607498235093,-0.3096588237985661,-0.8794001327516499,-0.007113702711169487,0.08460311835775258,-0.013043679275295266,,,none
0.8271419999999985,-155.38618030024003,26.138678114029513,109.38206434349041,0.024740652658332057,-0.2239222969953998,-0.928782193805811,0.03132108212683808,0.09015666688389926,-0.023885194257734135,,,none
0.8366170000000004,-155.01682749044537,25.75564158982799,109.36541019283578,-0.0682352444555598,0.006674795542174723,-1.029914946406009,0.05029127898981548,0.08817119332382942,-0.035691990493011805,,,none
0.8461619999999996,-154.7336349908592,25.352956253320116,109.2505809779429,-0.1231908565551534,0.1741658823585108,-1.0738678224307099,0.059177667919458415,0.07493416525537049,-0.04744742749081327,,,none
0.8556600000000003,-154.46988078446722,25.154649348154454,109.14973027030607,-0.10506921460631427,0.2510251542210371,-1.0284036811307442,0.021789771889695574,0.05815973885949504,-0.0427197699762765,,,none
0.8651879999999998,-154.18544836740995,25.255066180537245,109.15818977358566,-0.08665533737748268,0.16264968858547163,-1.0778553108162026,-0.03589802080625768,0.04207469953305817,-0.022555210354719687,,,none
0.8746589999999976,-153.89990725922038,25.457420693350112,109.24999331862081,-0.015574732371801726,-0.001099780582710555,-1.0022016484068765,-0.055254262058311424,0.035458759072749785,-0.006099154729604933,,,none
0.8842179999999971,-153.5875898519719,25.59717846552028,109.41108136739616,0.07310578930907996,-0.2117571429783109,-0.9390235014915819,-0.0450824052980069,0.04398109026145686,0.005307023363241999,,,none
0.8937259999999974,-153.26879263518262,25.605785718521922,109.63448868588632,0.0936616611598356,-0.26842904632342574,-0.9083936465655627,-0.020859813763712445,0.05367563583983587,0.017148801474760954,,,none
0.9032309999999981,-152.95409905820136,25.385830123605942,109.88462219545667,0.055029848127072956,-0.20446706395529785,-0.9716957895047379,0.022179729285779205,0.06842314922207456,0.009372714712812352,,,none
0.9126999999999974,-152.67856115574492,24.973008467861746,110.01485645741303,0.015409129711766162,-0.04515883807848604,-0.9857086849146505,0.060619474646683665,0.07516375781953906,-0.010300566168054626,,,none
0.9222590000000004,-152.41187331716932,24.598236247493215,110.02129436841386,-0.04307991881384325,0.13033900125101736,-1.0285636201000234,0.053895646709428036,0.0712446491491906,-0.025637008053378645,,,none
0.9317279999999997,-152.12691096296876,24.40776525946298,109.97795836237992,-0.08087264797300867,0.23679710826693157,-1.0769682061410344,0.018069474920289045,0.06183033066766805,-0.03676192877857571,,,none
0.9412769999999995,-151.82197352329416,24.4000258548249,109.88817783322651,-0.05887090878332722,0.18794821838208745,-1.0523585685295471,-0.017498202794856938,0.05279618823166059,-0.04320182413146973,,,none
0.9507569999999994,-151.46997450738803,24.557158018901884,109.85922642842246,-0.00013399190962440583,0.03442652449524247,-0.9936405943982182,-0.05139171206967242,0.04962566080207868,-0.034999341010318846,,,none
0.9602979999999981,-151.07323668361352,24.757859617578738,109.93769139180266,0.03418998216259428,-0.13603176725882007,-0.9745661279837398,-0.06235523917574383,0.05420220961687012,-0.01742820841487229,,,none
0.969815999999998,-150.6688014862713,24.8000244971951,110.0802048754798,0.05704446129418362,-0.23565285472495343,-0.9362044788727402,-0.03308792055862183,0.06619080793697966,-0.005405087101029659,,,none
0.9793269999999978,-150.28138268795183,24.615385068083153,110.24289891135548,0.04525945458793571,-0.2316164133663337,-0.927398808979438,0.01041693542715904,0.07888926979909484,0.00015023903114639835,,,none
0.9887909999999991,-149.9343306927092,24.287115427466663,110.39647690739386,-0.01509033743744104,-0.09994963661661971,-0.9658037268447992,0.03967190250095465,0.08214019179942142,0.0019869716841312327,,,none
0.9983240000000002,-149.64129262440227,23.9184587708966,110.48017929383063,-0.07722493945943382,0.06565017312993023,-1.0237127397684305,0.050465268397838464,0.0759592520146007,-0.007202837408826938,,,none
1.0078189999999978,-149.3989481074791,23.64234836269648,110.47387938276538,-0.09177801165366807,0.1793690391066709,-1.028981097416073,0.036257296461382725,0.060934909189994495,-0.02082751577785644,,,none
1.0173670000000001,-149.16458233862465,23.581457214951925,110.42932618063651,-0.07059199407382384,0.18340815786573977,-1.0304414283618184,-0.0036002433679959553,0.04454310005282461,-0.027714256471170814,,,none
1.0268680000000003,-148.91186634993818,23.70766983853109,110.47068295923869,-0.02261648507997031,0.0879416969583844,-1.0207501551356182,-0.039897185791423824,0.03457018186205534,-0.02867429003976276,,,none
1.0363779999999991,-148.62864434353625,23.87799296909479,110.53481258150099,0.04672621379177564,-0.06720991696001703,-0.9742795831593672,-0.05013999355191927,0.036618993882170235,-0.025649524173229115,,,none
1.0458989999999986,-148.29625468536847,23.967805599730653,110.64957807938507,0.0923824866943903,-0.1854204715332118,-0.938628517767191,-0.03825772085227565,0.05059892764225203,-0.016965072590234206,,,none
1.0553609999999978,-147.92465254820726,23.89191584004672,110.82178441573099,0.08107928720884497,-0.20140526813773887,-0.9382147051335651,-0.009900535658566162,0.06897457869956947,-0.0070457147486858275,,,none
1.0649239999999978,-147.53753259539818,23.625521890852987,111.01842372759285,0.030999610598060154,-0.12129861262761324,-0.9591695889444112,0.024442314452837646,0.08532117722859793,-0.005185955664262088,,,none
1.0745959999999997,-147.16064527483374,23.269039646261025,111.20771673183648,-0.03230869100775645,0.00952837419608006,-0.9793616062180617,0.04158381680149993,0.09032054258222336,-0.008472287187981563,,,none
1.0839040000000004,-146.80366638702682,22.98004923037196,111.34781337884996,-0.0882237312776507,0.1282359313162417,-1.0026279782896237,0.03001669163160105,0.08226433094277685,-0.013668995420402398,,,none
1.093443999999998,-146.47210355540108,22.84967147750416,111.42891931835563,-0.10358121289429403,0.16594021739536519,-1.0092487107975825,0.0019722373162785905,0.06645530241374827,-0.02199434545920299,,,none
1.102954999999998,-146.1633742800182,22.88953550369228,111.48409320577156,-0.06121597822273907,0.11003684396875173,-0.9678751262128835,-0.028294257685434216,0.05006807241442647,-0.02815432486578989,,,none
1.1126589999999972,-145.58420264458104,23.046122494042766,111.55091274731694,1.402495525462428,1.8839523486861505,3.562659951834533,-0.06838642191860217,0.08777886048056495,-0.047517851124997665,,,none
1.1219319999999975,-129.6908258258077,28.770417394602152,116.58482617064774,7.810676046282841,0.8136929150334267,1.5960602770011592,-2.2013865526720258,2.1537926244354266,-0.3378004507143777,,,none
1.1315619999999988,-105.84385312360578,35.612933955310794,128.89261887148427,-3.1899690848239106,-4.727953494926394,-10.383442785032653,-3.2949648365719106,2.6898718788455227,0.06191046696289188,,,none
1.143622999999998,-113.95311725576902,21.499104141222865,116.39912351400342,3.410857969762376,-0.5385748916287256,7.181483629896613,3.1486926338768013,0.3221781014982797,-1.7356879628326407,,,none
1.1505849999999995,-96.7969623090108,5.423989190839202,109.25612895368258,-1.0992928501451718,4.271688174258644,-7.314903269773554,1.6318102177816758,4.340196268251934,-2.288996235292578,,,none
1.1600149999999978,-83.17581405622681,-1.392370132008587,102.27337661585001,-6.673515293256098,6.7626733244749735,-5.134781442787852,0.5571234328797647,2.9976649213834325,-1.5589615574311573,,,none
1.1721799999999973,-92.64142492105593,7.96451097090901,98.83160549252182,5.869845655196651,2.744503483568764,3.6200155872294486,-1.4813738720877216,-2.2111596723201323,-0.6758019594999799,,,none
1.1791309999999982,-77.60684621840531,22.06093396355611,109.35786851669909,1.274620892999282,-0.6698450141506308,-2.5268046270528632,-3.4369190364242206,2.137217830417917,1.2571982723573598,,,none
1.1885569999999994,-58.39085666631559,30.188548754536072,127.99638588491239,-2.524808093999812,-9.860486302739355,-0.34796146549327583,-3.0733244750266486,2.2618793067276624,2.012593324242331,,,none
1.2077509999999982,-70.02505734963492,31.56441918381873,112.47124066803909,-2.008241583774739,-4.963482220260431,2.713143575126875,0.9780168294873767,-0.7346694710607858,-2.0660427765910945,,,none
1.2171629999999993,-74.40225448295519,22.2518432945115,104.90565133607979,0.20635229373476935,2.9592484912708104,-2.9679682577499977,2.0174291930305017,-0.1362317909957905,-1.2020300511884756,,,none
1.2265859999999975,-79.54804617763361,13.092260637596475,101.6500624161686,-4.345603327024891,6.340382622888265,-2.3806731638893224,2.0110558301606933,-0.5294349638315284,-0.406205501145713,,,none
1.2360609999999994,-85.70533684952106,8.691239496944108,103.47085142403168,0.7479104247055154,5.436790816685189,-1.4565744980661723,1.125085165862829,-0.9878024972845862,0.5413438326036466,,,none
1.2456089999999982,-90.13342184905801,9.483484805720101,108.67928501696531,-0.5943476157589258,1.8962935651796278,-0.2252380771286568,0.0909790675548518,-0.8854065738570349,1.1601637579020665,,,none
1.2575789999999998,-92.0634254744776,14.219813982796026,113.68529850731504,-1.61696865295535,-2.544685469330997,-1.0043698617312582,-0.7473715830903949,-0.6959744176559572,1.0696706589697107,,,none
1.2646249999999988,-95.56282842444313,20.562202689767894,116.13406269853726,1.4871841305224864,-3.708720311633844,-0.808314802278803,-0.8688243781583703,-1.1422593970462607,0.6808156406945703,,,none
1.2741489999999978,-99.89473229835441,25.174141647937933,113.44228103930831,1.206256370114645,-3.995100634020227,-1.0103729273853084,-0.5008501018377599,-1.1135370628318282,-0.24125948715687645,,,none
1.2836560000000006,-104.88007396889665,25.958957821627152,107.74666958949261,1.6647647501334981,-2.3346861542829607,-1.7444366598273755,0.17240072575285728,-0.8977173083448999,-0.7775331805238155,,,none
1.2931729999999995,-108.1281613666616,23.97666804489146,103.98161309051919,0.8333113454529816,0.6561727674702243,-1.467507491431009,0.5442638184971532,-0.4570168107962552,-0.5492460635297783,,,none
1.302747,-107.41515804622708,20.267903210668067,102.85455880042572,-0.021161289608563946,2.9138042087893026,-3.1837251000450455,0.6908778605112303,0.3026784614052401,-0.33556162632119996,,,none
1.3121839999999985,-106.5477402490819,16.295096418224617,103.9818203312881,-0.2414028556806476,3.190147032359605,-1.9585034896998108,0.7348000934795544,0.3463890325117173,0.1284465673845171,,,none
1.3216900000000003,-104.81563021655677,14.125452839959518,107.6416602039164,0.21178401604854463,1.8869253459847257,-1.2872833919104802,0.32627371539142386,0.4408046812966834,0.6141111234869112,,,none
1.3314009999999996,-102.20064351439906,13.678440389016252,111.54428771321537,-0.8815982491757077,-0.08267534905069199,-0.4263699116004753,-0.08653290073832992,0.5087986801261091,0.6367112149409615,,,none
1.3407160000000005,-99.02070579611141,14.609367563277551,113.18745958913,0.317435061009113,-1.9786789929519526,-0.2676643120923513,-0.4078272474629965,0.4995548052211912,0.14658279409522018,,,none
1.3502340000000004,-97.367512809753,16.322976268983737,112.8062397159986,-0.1168731043606201,-2.842600477702874,-0.2552773297370502,-0.44073876767199943,0.15884985714564157,-0.20556894906679984,,,none
1.3597479999999997,-97.19462507643328,17.972248652893175,110.66806011596711,0.5053919478200907,-1.4189150284472547,-0.2051851564172683,-0.31881321505562565,-0.092306387187731,-0.4906101507550975,,,none
1.3692439999999984,-96.91276426365705,18.94192829881832,107.34477188071884,-0.43936214390293576,-0.17215704677096397,-0.8791987591519438,-0.20101698636003992,-0.013144939781123511,-0.743148114407234,,,none
1.3882769999999987,-96.94043331863963,17.83441914517412,103.36091426838318,0.32698022646083025,2.344754002226191,-1.2402449414710197,0.20851970043162063,0.009021053770091547,-0.23646523992577143,,,none
1.3977679999999992,-96.6607905052471,16.373510365820987,104.6976527291085,-0.8104375299263592,1.556395085568917,-1.5234602188800697,0.27063529715636286,0.1232231384690635,0.21781019799269577,,,none
1.4073039999999999,-96.6826466191284,14.757078300380295,107.24181944308233,0.19575416630213258,0.503824430784691,-0.6972627290009308,0.3122556955007817,0.0853281010605859,0.4862874404775311,,,none
1.4168120000000002,-96.36457180934778,13.456735819346191,109.89073450544824,-0.4748834783949966,-1.1271593900315244,-0.5886650975174369,0.2270422027246174,0.14166157704726376,0.49438242317370545,,,none
1.426282999999998,-96.66502459553196,12.756318578645683,111.36271353417037,0.35277208594134946,-1.6540171856411463,-0.3545103296614036,0.15190035714157124,-0.005330998804179864,0.293604185514518,,,none
1.4358229999999992,-97.6329011281407,12.7851381324118,110.96064541238958,-0.04137825704006793,-1.4734020880514647,-0.4916944965299365,0.06305304187611935,-0.17825693719147687,-0.06474320004682747,,,none
1.4453519999999997,-98.89254177053972,13.34102232004435,108.65096651277192,-0.2182760193555998,-0.8334387404335543,-1.0165699958767191,-0.020997447254892644,-0.26890820672659943,-0.4467361268472606,,,none
1.4548419999999993,-100.2981995772459,14.152523290420747,106.28991538048405,-6.684571896424029,-3.5112170500890847,-0.5530228169175625,-0.07226410054690577,-0.3097152690394025,-0.45449000924402444,,,none
1.4645309999999974,-94.26489861822661,15.848288793384473,110.28579362446307,-1.54595468257234,-5.90825391840677,3.3925093280609424,-0.6894139494904146,1.000691506238025,0.45962546581381336,,,none
1.4833730000000003,-74.2157376351722,16.474830123872884,122.8085439741692,-4.888083212928601,-1.8724370927887557,0.9900110789415304,-0.4231008051183343,0.7158273525593636,-0.17221280813938888,,,none
1.492881999999998,-72.91982187423625,17.58629064306274,112.69712831270344,8.69945214574887,-3.0539214821916953,0.07613541639905645,-0.31333844683730977,0.1150919021523398,-2.1740135603630217,,,none
1.5023969999999984,-65.37672667034745,14.178190148494647,114.98351971990557,-6.311535239687554,2.849555791104177,-0.563109111628726,0.032219188564478536,1.6042695856025315,-0.010859146711760357,,,none
1.5119170000000004,-63.42957421851907,13.492371338486402,116.58395006241555,-2.358369160195726,7.642395392182461,-1.1935530867262656,-0.04137351318226736,0.40055278755805296,0.20702018303579603,,,none
1.5214989999999986,-60.92103782162231,17.348641757676177,117.34168164574884,-0.08619238012060171,1.0305997064145709,-1.7494972828867137,-0.9077154995378361,0.0806996854632565,-0.004721336828223001,,,none
1.5309399999999975,-57.44654771661074,17.56022136118828,127.35845468198161,-0.3505791682713093,1.1721223192285055,-1.191205981053439,-0.3910514016574109,0.5386634089909355,1.8043106957637725,,,none
1.5406309999999976,-54.122355689101724,16.90822169529865,138.03998859598892,-1.94241251596867,-3.2841114560171736,1.7094818121399147,-0.33475682669181966,0.5568607830933314,1.9736411176246464,,,none
1.5524249999999995,-53.08356009591097,18.436162799837152,142.51871707799475,3.1819087609428234,-3.210758323386425,-1.001964949496308,-0.34805881096636115,-0.10846119830974228,0.8475303010006736,,,none
1.5594649999999994,-54.53560989275003,19.267633264548312,143.21593623579983,3.3257117661890327,-3.5284552455671587,0.3361887176124411,0.11896696020608366,-0.2987672268456665,0.22542651627978463,,,none
1.5690709999999974,-54.043760073163675,17.889251409007713,143.33646817807355,1.6575953924983065,0.3730895650204986,-2.166919179384012,0.08999358057995875,0.2770917795699385,-0.02463959341885206,,,none
1.5784829999999985,-52.94916718533358,16.490526902105355,141.4938014787972,-3.1794744294837773,-0.7244993462737822,-1.1444764615379635,0.004530185861777337,0.34965095851624484,-0.45705359498001996,,,none
1.5880689999999973,-52.99924101631557,15.385256412686516,139.42981855954895,-0.33761638051085663,3.887882951722663,-3.3497123185709077,0.14811724001953633,0.16471209265649298,-0.4378859090723181,,,none
1.5974989999999991,-49.459945312126514,12.977990924370697,141.9909950619864,-2.820592725872412,1.5882197841420351,-2.2969605944396467,-0.22730673463788598,0.8078506215194607,0.32058350658252854,,,none
1.606978999999999,-45.863278314963694,9.917631509572292,147.66164962443943,-2.362828178306117,1.015614108413541,-0.9932272255971236,-0.22418928065875285,0.9076173790605576,0.9917545393731488,,,none
1.6165190000000003,-41.14047163268336,8.346546399730272,153.1125271953514,0.18799350828955685,-1.1612762170886164,-0.4780273846710627,-0.655943623492531,0.7354053075462988,0.9585959437214918,,,none
1.6260399999999997,-36.9044214383239,6.9863869130452265,158.27251495429277,2.2385975582424567,-2.3186232654902565,-0.21796538547792443,-0.653673621291471,0.5948234634174542,0.9391388781800356,,,none
1.6355489999999975,-33.40278322252511,5.12515388894435,162.31722839526753,2.7718903602198393,-1.0639123830699235,-1.0036430354006303,-0.5304358449085779,0.5863123899852132,0.7522789972549834,,,none
1.6475289999999987,-29.145005651984437,4.491985286615203,163.5577606817212,1.3915928957673203,-1.3581455064997006,-0.47311623415717524,-0.7749305015796172,0.3703974730134501,0.1767907825923766,,,none
1.6547429999999999,-25.429067165974274,4.789060339192107,162.47655332313806,0.22461065175761757,-0.48674209918637595,-0.39006212607860413,-0.7267481143602892,0.15914033250489631,-0.2954096253586237,,,none
1.6642589999999977,-22.64994629250436,3.7226907611489737,161.06925279253844,-3.0011775113925525,-3.877430670854663,4.962021414433736,-0.4607859288912013,0.3757609091427523,-0.3516328416235876,,,none
1.6735860000000002,-28.31163922117727,3.0891043577078334,159.07180929512933,-7.521041022268616,-2.7985278677397227,1.824132028042837,1.1074336683975377,-0.2650549188329061,-0.3635926092250785,,,none
1.6831749999999985,-39.38856123172593,5.9451284614779,155.76460765978584,-1.6341945215035152,3.9703212797065137,-5.325597032113724,1.824832992240482,-1.3729393593522317,-0.5180075473494286,,,none
1.6926819999999978,-45.26965084739461,4.44808128718177,157.2791646272512,-0.39641290590082945,-0.1192306292280963,-2.762213089567886,1.1951355684830818,-0.1915825875666788,0.39155276026814756,,,none
1.711618999999999,-53.33316889146529,-0.6859214275613035,163.2956260118511,1.5192945847690722,-1.0051461457377957,-1.847627040037708,0.7740231947988641,-0.053722706704953674,0.24433165083511052,,,none
1.7211479999999995,-54.72494822351077,0.08841797763724062,163.19351149605322,4.125632170421173,-0.43514543431102437,-2.541137339332834,0.22230647889491,-0.22861762220890516,-0.039060061041031,,,none
1.733115999999999,-54.711516359396136,0.7471286202400038,163.75021648051322,1.27192447053646,-2.1752968676479596,-1.0862209536821712,-0.040006981314629035,-0.12570081723041157,0.09476720275138856,,,none
1.7402029999999975,-54.59670957450008,3.102603248681298,161.8736210752378,-0.3096013556058624,0.5307619030568788,-1.5009647955468197,-0.16088305105304462,-0.44395209090185406,-0.39935320824535786,,,none
1.7496679999999998,-52.71166428406804,6.632898821588323,158.29201658678048,-0.6480322265928511,-0.21019940252439034,-1.08135592678153,-0.5937341330428437,-0.5373490888505623,-0.782196899479559,,,none
1.7591859999999997,-49.98297010806982,7.856758646590745,157.46008177091886,-1.5708502469066263,2.388331100759344,-2.5079719036761605,-0.5943394716259527,-0.02341427292401419,-0.25751130936651007,,,none
1.7686969999999995,-47.29835710142702,7.355508819980204,158.9090696793367,-3.2273596167505927,-0.5025852564943611,-0.10586519653469754,-0.457419991683481,0.29103389115896233,0.21283653771242836,,,none
1.7782109999999989,-46.24401936621617,6.881416609656399,160.1463226912584,-0.3200067111948928,1.2100276914946564,-1.1675242036225653,-0.16308281223797927,0.16215649268367904,0.2161515847217233,,,none
1.787900999999998,-44.45321754442822,5.65084188089508,161.68233805168927,-0.47369057048159224,-3.632877506942137,2.140676330614108,-0.25627207531733703,0.3493775733733107,0.26835380334837733,,,none
1.8068259999999974,-52.56396199256766,6.150671724323049,159.76577227386943,0.15473227878492393,3.0299849540129427,-2.9891399375063608,1.00098368909561,-0.6750150392610649,-0.40300558512020584,,,none
1.816326,-55.385968953780676,6.807794727395485,158.6235104071284,0.015501083849759316,-0.3209500693449078,-1.326906266520953,0.47833097823922716,-0.3220143505529415,-0.18256027145156195,,,none
1.8258389999999984,-57.54505290373692,5.183866983430905,160.70448785223127,-1.0944387221446223,0.016880662756086826,-2.042708493007482,0.5161192104651915,0.15558047409056405,0.45563560843409806,,,none
1.835296999999997,-60.24115772593209,4.4693306500735135,161.43539594677551,-0.8066982769526214,-0.26931434623922906,-1.0900721882230435,0.5552194281274456,-0.0391978920593808,0.1917262950937106,,,none
1.8448630000000001,-61.02271718480219,4.8711645585082906,160.8264471712909,1.394484804171719,0.12934779595959675,-2.017508254004795,0.12156262154899865,-0.12657300266754185,-0.10917383180850723,,,none
1.8542929999999984,-61.37675654118925,4.645031708879997,161.73268340847915,1.228297968399707,-0.6693370437888692,-1.3846153311287435,0.08143752167366379,0.020212234638161224,0.18731804629605261,,,none
1.8638079999999988,-61.078816826436935,4.655522260489925,162.44453571207083,-0.0971091872197943,-0.16986660046589552,-1.096500074219493,-0.05721952997243538,0.016289347035638536,0.1376854166159022,,,none
1.8733129999999996,-60.0335553026192,5.988388580439195,160.8581021461427,-0.5456056467143529,-2.252483564705139,-0.22036206723463866,-0.2816763375986127,-0.18790528283610203,-0.35317173572389127,,,none
1.8828129999999987,-59.65499497110713,7.050538117724435,159.31480927627163,-2.7540492900832185,-4.171828555483491,1.0789520173660294,-0.14310276118592963,-0.17442634444209779,-0.33616088102012154,,,none
1.8923239999999986,-59.52241352106859,7.478366985140901,158.37838541835595,-2.807340772045387,0.8561779588668145,-1.2701406597020444,-0.055431907857043744,-0.0704221326685732,-0.20433841045047585,,,none
1.901844999999998,-58.8442449627058,8.02726568909231,157.00795658666198,-1.8321496844897012,0.7283148196670143,-1.5101241754811578,-0.1661641866907009,-0.05071497235722471,-0.3066098070014624,,,none
1.9114329999999988,-58.14258383414317,7.087262504724958,157.8863783798807,-0.4121405693501343,1.1503725603512,-1.76707340517014,-0.05649350283933157,0.2272152428322915,0.15109468858643185,,,none
1.921004,-57.0423711542509,4.959632619945418,160.55247358935725,-0.26113415536420315,-0.4676058647579955,-0.453298347730961,-0.053603461214354366,0.47605709104171035,0.5149729112437378,,,none
1.930387999999997,-55.67090803757844,3.7268793356818506,162.02716432237273,0.3701898499894483,-1.7983227122061842,0.000511753927458432,-0.18016973658093444,0.32161299960336664,0.27442583474360616,,,none
1.9400639999999996,-55.26851517505272,3.878967030777867,161.57265592226793,0.33942620553214276,-2.500709301976526,0.6591821667388957,-0.08587807360668227,-0.0038210199966584755,-0.09634012267291979,,,none
1.9495380000000004,-55.31372696275238,4.674367975180344,160.456191105534,0.11620349625455534,-0.12102946699190177,-0.708674160729902,-0.04319552897182862,-0.15355835380725116,-0.23503923589946357,,,none
1.9589040000000004,-55.21346846726714,5.490566365335695,159.58247929105062,-1.1494478784045319,-0.13189850340815512,-0.7273569218576462,-0.07454793210074044,-0.14679990316542263,-0.19026939182806185,,,none
1.9779289999999996,-55.74114236675284,6.309758491188904,159.35163697435243,-1.7368227532280016,-0.5977464311314366,-0.32313388580528973,0.03721579474372485,-0.04213298342256897,0.054980936298739055,,,none
