timestamp,roll,pitch,yaw,acc_x,acc_y,acc_z,gyro_x,gyro_y,gyro_z,acc_mag,gyro_mag,markers
0.0,111.50312771919907,-29.629303630189018,-155.44652866360445,0.0,0.0,0.0,0.0,0.0,0.0,,,none
0.009526999999991403,111.51994495644097,-29.629470251497022,-155.4572691336431,0.0,0.0,0.0,0.0,0.0,0.0,,,none
0.019030999999984033,111.53323335564008,-29.61429585453153,-155.46048325039283,0.0,0.0,0.0,0.0,0.0,0.0,,,none
0.028542999999956464,111.54119252172715,-29.592054552955513,-155.4540026815504,0.0,0.0,0.0,0.0,0.0,0.0,,,none
0.03805199999999331,111.54381585302296,-29.57329701724368,-155.43965421709478,0.0,0.0,0.0,0.0,0.0,0.0,,,none
0.04757399999999734,111.53710629811616,-29.569946249866337,-155.41760959180718,-0.006950522432498202,-0.013779415607340582,-0.021242719321473542,0.0,0.0,0.0,,,none
0.057065999999963424,111.52472923185069,-29.590328210456917,-155.39656773551565,-0.007447500764063685,-0.014755610625964184,-0.022742801447944588,0.0,0.0,0.0,,,none
0.06657699999999522,111.50249083813691,-29.628962955147607,-155.37658654347274,0.0,0.0,0.0,0.0,0.0,0.0,,,none
0.0760829999999828,111.47786999863179,-29.679442104942364,-155.36525027696177,0.0,0.0,0.0,0.0,0.0,0.0,,,none
0.0856099999999742,111.4531372563726,-29.725588917578925,-155.36238104450018,0.0,0.0,0.0,0.0,0.0,0.0,,,none
0.09512300000000096,111.42604917116826,-29.752182991443533,-155.3662571260782,0.0,0.0,0.0,0.0,0.0,0.0,,,none
0.10463199999998096,111.40228432380181,-29.75229286422975,-155.37324805358128,0.0,0.0,0.0,0.0,0.0,0.0,,,none
0.12365199999999277,111.37459845117681,-29.68673805500261,-155.3844458773356,0.0,0.0,0.0,0.0,0.0,0.0,,,none
0.13316599999996015,111.37219049549535,-29.643639390677176,-155.38324722513553,0.0,0.0,0.0,0.0,0.0,0.0,,,none
0.1426649999999654,111.37578119233757,-29.610853724742384,-155.37617255165534,0.0,0.0,0.0,0.0,0.0,0.0,,,none
0.15180599999996502,111.38364885549623,-29.5994127137302,-155.36622012783667,0.0,0.0,0.0,0.0,0.0,0.0,,,none
0.18071699999995872,111.39565291328057,-29.687597605719255,-155.33783011339946,0.0,0.0,0.0,0.0,0.0,0.0,,,none
0.19974500000000717,111.37857116188826,-29.745206538278232,-155.3296622184666,0.0,0.0,0.0,0.0,0.0,0.0,,,none
0.2092529999999897,111.36642088539938,-29.7462264022926,-155.3320234652435,0.0,0.0,0.0,0.0,0.0,0.0,,,none
0.2187539999999899,111.35793145747094,-29.72627261224551,-155.3379944798388,0.0,0.0,0.0,0.0,0.0,0.0,,,none
0.22827499999999645,111.35770247100139,-29.69418895102296,-155.34825326615325,0.0,0.0,0.0,0.0,0.0,0.0,,,none
0.23778499999997393,111.3612625439424,-29.66412457445431,-155.35523986271943,0.0,0.0,0.0,0.0,0.0,0.0,,,none
0.2472839999999792,111.37346352958576,-29.64194353930197,-155.36011155085905,0.0,0.0,0.0,0.0,0.0,0.0,,,none
0.25680499999998574,111.39013346384344,-29.633554646355748,-155.36467759249626,0.0,0.0,0.0,0.0,0.0,0.0,,,none
0.2663000000000011,111.41608836111342,-29.637458639285583,-155.3729687083296,0.0,0.0,0.0,0.0,0.0,0.0,,,none
0.2758119999999735,111.44610702867624,-29.646553240069295,-155.38161250920103,0.0,0.0,0.0,0.0,0.0,0.0,,,none
0.2853329999999801,111.47555939838153,-29.654070239013603,-155.38859265648384,0.0,0.0,0.0,0.0,0.0,0.0,,,none
0.2948480000000018,111.49837010077412,-29.656924539094042,-155.39354859172795,0.0,0.0,0.0,0.0,0.0,0.0,,,none
0.30435099999999693,111.51042084155407,-29.655763686800086,-155.39351400917622,0.0,0.0,0.0,0.0,0.0,0.0,,,none
0.31386799999995674,111.51158261077069,-29.655424406344764,-155.3900502710232,0.0,0.0,0.0,0.0,0.0,0.0,,,none
0.3233809999999835,111.4974981432811,-29.65835675106876,-155.38314232341378,0.0,0.0,0.0,0.0,0.0,0.0,,,none
0.33287899999999127,111.47451900346981,-29.66313866088514,-155.37459753489455,0.0,0.0,0.0,0.0,0.0,0.0,,,none
0.34240299999999024,111.44592348092439,-29.667034013227266,-155.3689099712207,0.0,0.0,0.0,0.0,0.0,0.0,,,none
0.3519069999999829,111.42162420439222,-29.66679174314613,-155.36975065186064,0.0,0.0,0.0,0.0,0.0,0.0,,,none
0.36142699999999195,111.40128335365019,-29.66032436244118,-155.37455551986793,0.0,0.0,0.0,0.0,0.0,0.0,,,none
0.38034899999996696,111.38082309393434,-29.62757036874351,-155.38475938127675,0.0,0.0,0.0,0.0,0.0,0.0,,,none
0.3899470000000065,111.38223776949631,-29.607323862268892,-155.38702655599747,0.0,0.0,0.0,0.0,0.0,0.0,,,none
0.39937799999995605,111.39005346201765,-29.58965891195899,-155.38691817100266,0.0,0.0,0.0,0.0,0.0,0.0,,,none
0.4089649999999665,111.4038044210764,-29.572832963322206,-155.38818606075176,0.0,0.0,0.0,0.0,0.0,0.0,,,none
0.4184919999999579,111.41970216310541,-29.56073391242797,-155.38952274380307,0.0,0.0,0.0,0.0,0.0,0.0,,,none
0.42800099999999475,111.43924420515702,-29.550203683377752,-155.3954425617288,0.0,0.0,0.0,0.0,0.0,0.0,,,none
0.4374899999999684,111.46149186102569,-29.542321141006106,-155.40452769319356,0.0,0.0,0.0,0.0,0.0,0.0,,,none
0.44700799999998253,111.48330814886339,-29.535001737977147,-155.41576953702221,0.0,0.0,0.0,0.0,0.0,0.0,,,none
0.4565240000000017,111.50686400915453,-29.52758585631562,-155.4290448659718,0.0,0.0,0.0,0.0,0.0,0.0,,,none
0.46603099999998676,111.53262061639482,-29.519585944237637,-155.44349994568535,0.0,0.0,0.0,0.0,0.0,0.0,,,none
0.47553699999997434,111.55655073570392,-29.510380341417275,-155.45522317994437,0.0,0.0,0.0,0.0,0.0,0.0,,,none
0.4850490000000036,111.5804133619172,-29.49847240432675,-155.46366791629654,0.0,0.0,0.0,0.0,0.0,0.0,,,none
0.49456499999996595,111.60186728530678,-29.48501944160545,-155.46964219184267,0.0,0.0,0.0,0.0,0.0,0.0,,,none
0.5039729999999736,111.61471481121609,-29.473221042862445,-155.46848277917715,0.0,0.0,0.0,0.0,0.0,0.0,,,none
0.5135019999999599,111.62253816635764,-29.464045266102953,-155.46336514214067,-0.0068732561364343815,-0.013725878632750902,-0.021157093388437742,0.0,0.0,0.0,,,none
0.5230980000000045,111.6256324702821,-29.458427792451502,-155.4581211065861,-0.007517805799279598,-0.01502254821152116,-0.023155126647168518,0.0,0.0,0.0,,,none
0.5326009999999997,111.61889295321822,-29.462222780887217,-155.44989824579642,-0.007200201666806452,-0.014384960692295052,-0.022173873178382396,0.0,0.0,0.0,,,none
0.5421139999999696,111.60378351051727,-29.473691163494582,-155.4421239993686,0.0,0.0,0.0,0.0,0.0,0.0,,,none
0.5516379999999685,111.58543796974877,-29.490022665228256,-155.43667159435927,0.0,0.0,0.0,0.0,0.0,0.0,,,none
0.5612519999999677,111.56503473319937,-29.50693970977283,-155.43560989389783,0.0,0.0,0.0,0.0,0.0,0.0,,,none
0.5706689999999526,111.54870449712037,-29.515387149731016,-155.44043317831418,0.0,0.0,0.0,0.0,0.0,0.0,,,none
0.5801669999999604,111.5366000934317,-29.511954645860417,-155.44764740141918,0.0,0.0,0.0,0.0,0.0,0.0,,,none
0.5896319999999946,111.53050776444502,-29.493159022717222,-155.45695534207857,0.0,0.0,0.0,0.0,0.0,0.0,,,none
0.5991879999999696,111.5306125141684,-29.465429386520416,-155.46669935085262,0.0,0.0,0.0,0.0,0.0,0.0,,,none
0.6086970000000065,111.53451610350294,-29.438770798482167,-155.4712616685489,0.0,0.0,0.0,0.0,0.0,0.0,,,none
0.6182109999999739,111.53952802019884,-29.424878313364477,-155.4679084842343,0.0,0.0,0.0,0.0,0.0,0.0,,,none
0.6277199999999539,111.54137644700798,-29.428253207764598,-155.46015265417105,0.0,0.0,0.0,0.0,0.0,0.0,,,none
0.6372279999999932,111.54340854089914,-29.449888671010992,-155.45214202727317,0.0,0.0,0.0,0.0,0.0,0.0,,,none
0.6467539999999872,111.54186693636034,-29.47930650427661,-155.44507908954463,0.0,0.0,0.0,0.0,0.0,0.0,,,none
0.656248000000005,111.54438499767485,-29.50232504865233,-155.44532579100735,0.0,0.0,0.0,0.0,0.0,0.0,,,none
0.6657669999999598,111.57026069185522,-29.509747189842578,-155.46336356022036,0.0,0.0,0.0,0.0,0.0,0.0,,,none
0.6752599999999802,111.63464316831993,-29.497452381290213,-155.50303322037615,0.018875525770534765,-0.026416286105025888,0.011000307755764275,0.0,0.0,0.0,,,none
0.684773000000007,111.72027673381884,-29.462616587008796,-155.554900466201,0.02028098168481014,-0.028400481442833556,0.011878383509999405,0.0,0.0,0.0,,,none
0.6942889999999693,111.89998713973213,-29.38567545489589,-155.66712875586168,0.0939467602158493,-0.06676331060750379,0.013210278995981501,0.0,0.0,0.0,,,none
0.7038029999999935,112.05410608571853,-29.302503018450597,-155.78126124036368,0.0819122006904133,-0.05978691521750523,0.012780070887855802,0.0,0.0,0.0,,,none
0.7129390000000058,112.15624634332217,-29.22894998960723,-155.84150961438382,0.05336961605614562,-0.07508631627227356,0.0321071091811123,0.0,0.0,0.0,,,none
0.7228230000000053,112.22297131232779,-29.17766694849625,-155.8272727962436,0.049546396175399104,-0.04102943258652127,0.050863852350054875,0.0,0.0,0.0,,,none
0.732343999999955,112.23829953202943,-29.157159742680427,-155.74680652211148,-0.024655701846002808,-0.026074290815139546,0.059392325096183536,0.0,0.0,0.0,,,none
0.7418409999999653,112.21172150117991,-29.168986827843693,-155.59972160719127,-0.06492961176974515,-0.029453758566413274,0.0397963706643811,0.0,0.0,0.0,,,none
0.751355999999987,112.14019122474542,-29.197652863202464,-155.39405555994415,-0.09044323941532109,-0.008205238347474832,-0.007784093284584299,0.0,0.0,0.0,,,none
0.7608589999999822,112.0398030720227,-29.22077813174657,-155.1953777915579,-0.07982398487298956,-0.012644370762344821,-0.04735487966630227,0.0,0.0,0.0,,,none
0.7700069999999641,111.90725675732536,-29.18151652918224,-155.03559848207223,-0.03902472640236777,-0.003852588299882385,-0.06626222494132951,0.0,0.0,0.0,,,none
0.7798829999999839,111.79778319366639,-29.00726839601139,-154.97647460235368,0.08450100392623407,-0.03327193373309485,-0.05647945023088433,0.0,0.0,0.0,,,none
0.7894019999999955,111.51895006160943,-28.70619029640761,-154.91468220143616,0.11733704820938919,0.05492802841600084,-0.07094869589214216,0.05200570059216824,-0.018772332444078478,-0.019228498868207537,,,none
0.798831000000007,111.22331656028697,-28.543790912440812,-154.75991312277336,0.10595579161400481,0.2156456756741571,-0.22114695569714926,0.05573667265064851,-0.019989311478515005,-0.00217185347494275,,,none
0.808339999999987,111.21740815561071,-28.425411895348056,-154.4653716854042,0.2506956209005237,0.07177029832291394,-0.397723882767484,0.006065149421138658,-0.0336434485218658,0.05357016921897965,,,none
0.8178509999999619,111.969310248873,-28.386542612910144,-154.219928893363,0.28751670670344764,0.04959374961126314,-0.7318854563167598,-0.12084897270408203,-0.07710484726967894,0.11601733459960636,,,none
0.8271729999999593,113.48848353330612,-28.46405929011171,-154.0862464657236,0.10021315340031527,0.16213665342979544,-0.9046762270874683,-0.25210500853653994,-0.1155417834231009,0.167049231124435,,,none
0.8367690000000039,115.06288605087815,-28.740789859582733,-153.73786008018558,-0.04120115385699083,0.1192351397195614,-1.1365235414864543,-0.27725660001928915,-0.08502099629865453,0.21642852003181773,,,none
0.8462789999999814,116.66751133458514,-29.1377851902826,-153.25895987641638,0.10596254584249831,-0.20085048501115627,-1.1621808365662918,-0.2911111639026517,-0.0675974257947447,0.24741550364296971,,,none
0.8557799999999816,118.47876596240629,-29.458342436367104,-152.94913733147476,-0.2819363022604128,0.16450505889660397,-1.193959857877714,-0.314787227313096,-0.099267194951881,0.2359013202970923,,,none
0.8652909999999565,119.50825527111698,-29.65597315052859,-152.6167080881885,-0.28750298166357446,-0.0026905334917480804,-1.189121931738129,-0.18105767253973892,-0.06038709419927629,0.16484626118724618,,,none
0.8748089999999706,119.9432736789821,-29.72611574010037,-152.29699516534546,-0.0759645966690413,-0.3250499366452826,-1.284948837357063,-0.07699522748376365,-0.03614686090546615,0.11664919415623126,,,none
0.8843139999999607,120.28612354416533,-29.620030653829062,-152.08783351447636,-0.18639810319180744,0.04351433858332631,-1.3120820621471347,-0.046155338007163635,-0.060285557462173234,0.08322480369156358,,,none
0.8938249999999925,119.8399328629623,-29.426272371739625,-151.84147376952794,-0.11364908980460381,-0.04899686426390495,-1.3228583722688347,0.08354005549405276,-0.011449035170115907,0.013335865852371601,,,none
0.9033409999999549,119.02322487835977,-29.326104195934946,-151.41375226398972,0.020531442292473414,-0.05751964917180496,-1.2509840361335551,0.1315911013394509,0.036333186999232284,0.011671160472729753,,,none
0.9128549999999791,118.01582362102641,-29.310459594922815,-150.97537815514062,-0.05659737644239893,0.1695040202451357,-1.1324981358591033,0.15226633555538246,0.06829317855607546,-0.0031929112739515165,,,none
0.9222770000000082,116.70356900545751,-29.386353295128398,-150.57576277629093,-0.0688720496887773,0.025470936450549615,-0.9832986013141374,0.18903286805776323,0.11141056042576779,-0.03780743689509047,,,none
0.9319789999999557,115.35868900534369,-29.592231887766093,-150.13671726552283,-0.07503275326839406,0.022513552346241063,-0.8833061289221361,0.17980517952713962,0.13818930746710334,-0.0351258253756503,,,none
0.941475999999966,114.14584442793549,-29.818642382342627,-149.78692052365236,0.020412622263068874,-0.05831885291076911,-0.8407793189065514,0.15626673220281156,0.13136943937359224,-0.042100033516873275,,,none
0.9509919999999852,113.3261452126714,-29.972894117931215,-149.58470767387868,0.04246838821185123,-0.023209722828050294,-0.8034613431961614,0.10350166024727699,0.0851328204368174,-0.036380762150178374,,,none
0.9604909999999904,112.80053430562258,-30.045030814698418,-149.36128200451293,0.06165546891239494,0.14694197816154034,-0.8167766097968837,0.06738632471918013,0.045432272530578334,-0.004487890655381081,,,none
0.9700080000000071,112.39802349104353,-30.01175165010784,-149.06960113395394,0.1871064312722393,0.09499513758786446,-0.8746419245531237,0.05959179134047995,0.016691970151872064,0.02237343851181306,,,none
0.9793409999999767,112.25414343962288,-29.89872501515206,-148.74169031386288,0.11402553629988121,0.12945618307678292,-0.9319183594733308,0.029359979354990403,-0.019782694660178422,0.05546457018531151,,,none
0.9888540000000035,112.20089835592401,-29.806755172270847,-148.28343590584805,0.026148919191253034,0.08331193325896272,-0.9720361345470622,0.013905982977963787,-0.024190565675126514,0.0895797430525267,,,none
0.9983689999999683,112.16845926510652,-29.80750163540759,-147.74041806207276,-0.020097944265257538,-0.034981150101248276,-1.0204822970253544,0.001227083588552584,-0.01022931515044533,0.10887089374517196,,,none
1.0173879999999826,112.2306940734309,-30.072381961040513,-146.98133888638915,-0.15788520270921758,-0.0878112726953482,-1.0434034959988308,-0.022333499234074544,0.0154323626169804,0.07045456487743534,,,none
1.0269799999999805,112.1603962182083,-30.290173455391383,-146.71920186026185,-0.07822440292850971,-0.08516578253776534,-1.0675876073525583,-0.016926268311210604,0.02979408679498228,0.049726633720870744,,,none
1.036483999999973,112.0258181315202,-30.460095274948845,-146.54080851107256,-0.04485317934892641,0.056232306527884926,-1.0869154066624884,0.0,0.0,0.0,,,none
1.0459960000000024,111.66214982760505,-30.52506628939249,-146.34404745558578,0.012732493326016232,0.07145202813990933,-1.0930500965641676,0.04183648389916647,0.032117008906456426,0.011603520297263326,,,none
1.0555069999999773,111.14035353659698,-30.501460738606813,-145.99054607123205,0.054259275684866305,0.07889130178040162,-1.0818503816164167,0.07413941510043251,0.03276081358380799,0.026237151713096374,,,none
1.0649399999999787,110.5260979268885,-30.402440365260823,-145.51569447432885,0.028009662600545143,0.10405285374631687,-1.0279886573642578,0.09556005003435408,0.029849539110628383,0.04062848339402811,,,none
1.0746919999999704,109.8395920756968,-30.272384796613196,-145.01159379163408,-0.01705854364043273,0.007929372777701775,-0.9667359995900814,0.10911146344016137,0.03278842917225111,0.039995675240002485,,,none
1.0841389999999933,109.21035567555786,-30.196597863850993,-144.49819169959068,-0.07801531409798602,-0.007757071502288313,-0.9145374786657141,0.09445734622988448,0.03706961343256655,0.04490061913643866,,,none
1.0936549999999556,108.64608741278828,-30.209731374247202,-144.07867866142007,-0.04285035297683215,-0.0763579945950235,-0.9042096474880479,0.0745663800967405,0.045822363411054355,0.0344370551927101,,,none
1.103162999999995,108.28185466845169,-30.308962634351044,-143.791762707017,-0.04587857117799742,-0.01929336016600561,-0.9082361693572764,0.03603204335316369,0.03989716254726314,0.026164627786980976,,,none
1.1126729999999725,108.00342834735751,-30.465890692852142,-143.55676572883024,-0.010300994894687337,0.05281512542891817,-0.9366462349800269,0.0,0.0,0.0,,,none
1.1220069999999964,107.73286573910029,-30.62309039381091,-143.32998895999523,0.0645440866900134,0.057580191411809485,-0.9966724449228552,0.015554176394178595,0.03984360904962563,0.03041086312697356,,,none
1.131508999999994,107.5000417558327,-30.719267679754342,-143.04576074383607,0.046976087946038476,0.11625900081446766,-1.011655771119449,0.017404930850393067,0.026200041892188716,0.046784164774819524,,,none
1.141025999999954,107.18913224557338,-30.723552560888308,-142.6506183031964,1.0521101285928187,-0.9499490413048616,-0.5910220753400951,0.039012799075016556,0.019732498893048334,0.058765791884459906,,,none
1.1507090000000062,101.89411595304658,-28.88042163562853,-139.7374288501722,-4.655967113390972,2.7648514575774708,5.383875681956766,0.9450569160212315,0.27503450939948776,0.07004082542439362,,,none
1.1602199999999812,76.7688118239585,-14.821453183697068,-126.35936924769167,2.6431895092543853,-7.595415686298496,5.4867725494026525,5.214977280344112,1.50765005100643,0.7823294254803689,,,none
1.1697619999999915,57.76712678854598,-11.756312417730765,-134.62883107442224,2.4634807303840183,-0.5024318688763968,0.0033902863542284115,2.864978896794298,2.421142885299572,-2.526433122021156,,,none
1.18852899999996,22.255069478190503,-13.760076477116398,-158.7020907010583,4.954951883777331,-3.7617099064580644,-6.271827303898433,3.6075076401571216,1.1470079189089848,-2.416401758094879,,,none
1.198112999999978,7.160784985512707,-28.788630787730344,-161.40140229962998,-0.4787198029828282,3.463485682141622,-0.9599279869785867,1.62381510289395,3.786760618193751,-1.6371707957927852,,,none
1.2076449999999568,-4.810971815535921,-42.731597213613725,-150.6100457981364,1.5719138234153065,-3.3725887739048472,7.490580118665426,0.6364985978154043,3.3410925665043605,0.7396954810827592,,,none
1.217129,-29.6606947135645,-36.392469862620004,-136.47957275210322,3.3702111429686807,-8.579969412549023,1.4150734341802338,3.8056774575531547,1.2781249121419584,-0.36804502243303727,,,none
1.2265709999999785,-51.95780676687979,-24.266439515978714,-124.659793854518,-4.9458142526851985,0.8932289705552738,-6.097865911604004,4.314167607819803,1.374985012002024,0.08491456835258222,,,none
1.2360909999999876,-60.66819379524608,-14.77691510606751,-110.53274737536775,0.8544154393856185,-2.571149757380714,-4.816637616596508,2.435120885045342,0.5803566367046328,2.243017232048743,,,none
1.245668999999964,-68.28451997003557,-8.235780140236537,-104.07337159058835,5.523298402258195,-2.6958358802509372,-4.08308076184303,1.6835434224989965,1.0361314559894979,0.9958520160198948,,,none
1.2549769999999967,-75.20243091782929,-7.548511365126752,-104.79833045373691,-5.400962617842794,6.036993591176784,-3.814199562014231,0.4660944073391559,1.291698491956718,-0.3243862096888829,,,none
1.2646179999999845,-76.17275872238777,-14.451007236647753,-100.49827432332197,2.9829869258888944,1.312624368970704,-3.3702552768519105,-1.3164750331348436,0.4867249389149512,0.8333860221865286,,,none
1.2740660000000048,-80.0510032442493,-24.428600804758933,-96.18279454856203,-0.1305987047200312,-0.8709645937015806,-0.7193341664410254,-1.8784553463828084,1.0144037927336478,0.6138285984742202,,,none
1.283694999999966,-80.88709731749341,-31.338204674505175,-97.7917039427179,-0.901970223622032,-0.22448156513679335,2.131811508710095,-1.3628827008221343,0.3163548647775863,-0.38865103261216616,,,none
1.2933499999999754,-79.90708410613563,-32.3309417813662,-99.7650900142769,0.5920564467977641,0.3415893038995065,0.6089580651831132,-0.22900009208592764,-0.1329274584088089,-0.2793038101170177,,,none
1.3027239999999551,-84.78947031285315,-27.32215730612095,-95.92418590228834,-1.4507875098712109,-1.9202849575897918,2.8116969666684777,1.1024087406407368,0.703362652166737,0.2954943069730325,,,none
1.3120499999999993,-87.451913048595,-15.730332326884879,-93.4598406303562,1.459175618885453,-4.214881265796884,1.3400497300490424,2.348275487195725,0.30216890110968836,0.3100574694170165,,,none
1.3216299999999706,-90.1153378251391,-0.8078281136941016,-93.72544723969573,0.9600628309967696,-0.50262577472662,-2.3979670580147423,3.010144530595487,0.3347251524423736,-0.11646922238144329,,,none
1.331062999999972,-96.22161284151957,12.540976690524417,-92.3040113389038,0.8135457129660165,1.054711203420186,-1.509349350188776,2.7273557795816874,1.0678560752688706,0.41979269052948803,,,none
1.3405730000000062,-102.41526355337788,21.267190340954514,-91.97352434641107,1.5865104404132644,1.4524344055581406,-1.6688313278088824,1.7863217075403357,1.11102842532223,0.4367825565578413,,,none
1.3502369999999928,-110.18876272101328,23.316966193511075,-95.41474122800744,0.9048085337540995,2.7717870419154655,-1.384985818903098,0.5001061678587,1.399332165708531,-0.08835244637051368,,,none
1.3595899999999688,-118.42294899819477,20.21370487656174,-96.98552677219575,0.1329668739935383,2.57040238381103,-0.5530288400518649,-0.4518693339291005,1.5782585762791732,0.3070011282269751,,,none
1.3691949999999906,-125.18099858680534,16.072637441637546,-94.30088607481649,0.4074996765393445,-0.369309109266645,-1.494020721169195,-0.6968340129085535,1.351488469268821,0.9682036439594659,,,none
1.3787699999999745,-132.53678357840099,13.080616432079363,-91.67817975788499,0.9458103745338353,-2.7200919856101,-2.28831762442434,-0.5199546965096506,1.445509148463644,0.9052447990272139,,,none
1.388132999999982,-140.74018462622703,13.54343377497221,-91.18976220124293,-0.06085026919272441,-2.929965729406847,-0.7059242709812628,0.13797263842018936,1.5858999735402681,0.4854183830966872,,,none
1.3976409999999646,-148.31057788136425,19.261960440176527,-93.20608883441686,-1.1151586444937724,-3.8172797433000203,0.35014902376661966,1.2053766669325967,1.3989634221934222,0.033273172259297275,,,none
1.409829000000002,-156.34267267558937,27.4085493757327,-99.22622301344586,-4.148255857639931,-0.33078844740898783,3.4179618905546714,1.7865962305189247,1.280400222601071,-0.5588399232939099,,,none
1.4168399999999792,-174.05331609839544,37.04793068759039,-106.51125965161071,-2.440228106568771,10.98041373957953,-3.4027055704812654,2.5414219000817417,2.4847082669103817,0.446271545932504,,,none
1.426717999999994,166.5152205408644,38.07466960352975,-113.0981716796991,0.21705858418536064,1.3179068491737589,6.5611468546924065,1.2430490385398718,2.815511630438046,1.0576542149329793,,,none
1.4383379999999875,156.07245068254826,32.75765294946767,-115.23210576132513,-3.9707264150435586,4.527614426285621,-1.8676072435087925,-0.2625029080761279,1.9780872447631366,0.782706369169238,,,none
1.4455580000000054,149.3707609881535,26.14229989981822,-113.66837096309256,-0.7790192152782304,-1.6460694690677549,1.1550327850569324,-0.7117534386306307,1.6019952692663768,0.9688521906176526,,,none
1.45489299999997,146.7311711227675,23.48942223898255,-111.2131186146515,-2.586420548048071,-4.845797070972856,0.03268073060957215,-0.2979581170459126,0.6367459028884306,0.7089576156478439,,,none
1.466861999999992,145.69045801761013,26.650418265621003,-109.67471858360827,-1.3487786963719077,-5.0149886147743326,-2.5678664237702344,0.6696767402733409,-0.05314757621822666,0.3909533615392779,,,none
1.4739129999999818,145.46272551458702,33.11813299375924,-110.7289405269473,-2.5493236242891317,-1.3427498242218485,-1.209437603982833,1.2399633284076126,-0.4187814349322718,-0.1942944260781128,,,none
1.4834229999999593,141.0913292356507,40.363810655731335,-113.68605425033361,1.223352163131027,1.0763182816520096,-1.0974863729815574,1.618408043847432,0.09336351778796781,-0.07512655271040482,,,none
1.4931100000000015,141.1195134577429,45.028263337644866,-118.0392410366974,1.0509588198949598,1.5393446085559623,0.63699263775308,0.8489740786441046,-0.4196768558110034,-0.8825000941746531,,,none
1.5024459999999635,141.69368422654563,44.60305216532795,-120.98289600424516,1.212539303102931,3.8295395993303503,0.08803567438126557,-0.10514074591541027,-0.037668810986404705,-0.6768236065025691,,,none
1.5119489999999587,141.9623785265774,40.66372860501608,-121.16230437726345,-1.416124332369778,5.436689692233433,-0.3805879956872258,-0.6873405013429337,0.36450522198018337,-0.07806867670160543,,,none
1.5214699999999652,133.55719843224963,38.21452541923914,-121.74153231221923,-3.3460186560786656,4.008924613967164,-0.588624853770052,0.2690148628215084,1.3556800613948876,0.9455647393100964,,,none
1.5311529999999607,121.82334730932074,37.58737916789366,-123.06122151545141,1.605022694998191,-3.4228905549204076,-0.462077751964479,0.8955289126302585,1.6248212628110579,1.1696502400228834,,,none
1.540491999999972,117.95852746878788,36.63278607869168,-121.89465089364413,-4.119110141611527,-0.1265560203339928,-1.9789548156127963,0.17851471770368102,0.6173062725842932,0.6902011703124262,,,none
1.5526279999999701,112.60134360348555,37.155371687959175,-120.4208642474403,0.0951169443054048,-2.1588751888023854,0.44123747730964263,0.5416801309307596,0.6752073689270665,0.9276150869309416,,,none
1.5595149999999762,104.83938026802763,40.22788605036245,-124.06824217794164,0.6868086532330021,-1.5965137265751335,-0.22770318752007765,1.1738633669097989,0.694320234353561,0.22977992479176892,,,none
1.5690179999999714,98.35463637214554,43.77350633982526,-129.78433915435252,-1.7399280195331015,0.15308776259799636,-0.8580406813239243,1.1532712337157973,0.342518681900516,-0.2873728786822638,,,none
1.5787069999999517,94.47593841824911,46.47759955882025,-132.2538289572689,1.1062747703793205,-0.03779117012013266,0.04827848669562305,0.7750291896382719,0.056419808349345964,0.0430872471117791,,,none
1.5882279999999582,91.85418431430661,47.88111218716066,-134.30258301592664,0.7950018592376417,1.0108532768841605,-0.19572327109393106,0.4560779610874326,0.06594241314422594,-0.03791503611824494,,,none
1.5975609999999847,90.00144753292822,47.62436017210513,-136.30787325286605,0.2664371763017217,0.544330522284159,-0.9481818360915935,0.14762656953945127,0.21104511534929063,-0.13931821341391748,,,none
1.6070519999999533,89.45764867394993,46.009047115438385,-135.47179709606527,-5.248485325882763,4.148960921792526,-0.430065866515961,-0.16522048167431946,0.28332588597185715,0.23430886195582987,,,none
1.6262699999999768,75.45255258859052,41.8447700424329,-137.66544119658042,1.2509361683880085,-1.7169318688613626,-1.5688283397129923,0.6882749456629383,1.2396352168090647,0.6265289113082947,,,none
1.635770999999977,69.04378069007396,40.50741208135586,-139.975970933033,-2.4190064848197754,0.20585372894478204,-0.16021443034736207,0.5536018683243134,0.8389323638186624,0.36915368266202203,,,none
1.6451149999999757,63.50272903979955,40.65099173978919,-141.0948689767214,1.4817524727150237,-1.149372151207293,-0.31272078094077843,0.6711661491726137,0.515962119889635,0.4839869305764634,,,none
1.6572779999999625,56.47951052058791,40.565120613823396,-145.1487112876576,0.4513214322320831,-0.006866360563302294,-0.16444094522393307,0.8448258181086036,0.6579878350912076,0.09095873527594732,,,none
1.6641259999999534,50.327311558552815,40.098972279228676,-150.0293652963288,-0.037836122548711125,-0.43005774080205683,-1.0279894404091305,0.743321832895923,0.5866151394575118,-0.19226938788970424,,,none
1.6738209999999754,46.089191887467976,40.45923784575412,-150.96133909000292,-0.42099494327275233,0.2277326208450395,-0.6447003459672914,0.5962234292700306,0.2685643954501316,0.07054501687637149,,,none
1.6832509999999843,42.808410567670904,40.17091174060979,-150.74083378794595,0.7524493978136194,0.16198280017110814,-1.504917025815461,0.4057782941028818,0.3049591279629887,0.18501418650454554,,,none
1.6928399999999897,40.25659233356905,38.06935575067257,-150.46690914912145,-3.6478657382810207,1.4556341238814878,1.404092308490007,0.1312641666536519,0.5688258805431218,0.09492205669896638,,,none
1.7021689999999694,38.048474258498224,35.87902058886915,-148.73716869176175,-4.653997233756999,1.5576979481305697,1.6249789088514288,0.07453591343333,0.5639985326099541,0.33541628256873374,,,none
1.711766999999952,37.3282189116513,34.13889698273454,-145.96870828940388,-0.05120759580584492,-0.014020165369437955,-1.5075791336274529,-0.09501351493434658,0.3618630047948744,0.36775515491386906,,,none
1.7238119999999526,35.942216784000244,31.644801560967284,-144.50663917851327,-0.2598295390021715,-0.2581747039208984,-0.4255667571309886,-0.10292917897482927,0.5476566271681635,0.16930362433995882,,,none
1.7306969999999637,32.13446516119101,28.938549405488917,-144.60251497335324,-0.2508199932196448,0.27644204550062296,-1.0907038991543871,0.20845470814611236,0.831358804629791,0.09655894883106522,,,none
1.740226000000007,28.926393920120855,27.242458604654775,-144.9685100590844,0.17928924402225316,0.4114667893237007,-0.7438838334392206,0.25516555829818105,0.6130412067454448,-0.038883914440241786,,,none
1.7592329999999947,20.649267126602947,24.47875726476783,-146.55104908273046,0.14980461887098395,0.6136765573153037,-1.2524153792756372,0.4877498687421077,0.7225939927384577,-0.04751798795220829,,,none
1.768925999999965,16.874248500158753,23.18091526291342,-146.45478065790016,-1.1248222111473722,0.13002420679555374,0.12105484789649579,0.4195253216438559,0.6095644353452822,0.07423521024970497,,,none
1.7784489999999664,13.493003937621834,22.36947690594557,-144.99853255260922,-2.577040765837813,0.7279595352338956,1.433223689428952,0.4112907191852569,0.49687659736821627,0.30889337060461264,,,none
1.7902159999999867,13.254758264188219,21.423959596647002,-142.24789496335595,-2.286654169842056,-0.059702902811897766,-0.7243974958110931,-0.08720731470587745,0.18406959743529197,0.32074591740105646,,,none
1.7972749999999564,13.876031802540934,20.54717982009259,-138.81074237911716,-1.1237542139037866,-1.0539695589524325,-1.1443189652251793,-0.2109953439583186,0.06509918460603732,0.39882734365055034,,,none
1.816471999999976,9.196256770981979,15.055290976465738,-134.56249940143513,-0.3946515365676276,0.21289415965412312,-1.042094728670378,-0.18899618563259152,0.8365680243473922,0.22826493335028342,,,none
1.826166999999998,5.825571518132464,12.399950060466214,-133.76980483683434,0.06574319531734789,0.4412959804345226,1.0907849344691414,0.05649328515042623,0.8457571067744745,0.1026073182815228,,,none
1.8354989999999702,1.7296198979552189,11.134831166188302,-133.48073866545258,-0.436248769030695,1.4774881126419004,-0.8853566611284536,0.3520470433904912,0.7635546523807822,0.014336435366271313,,,none
1.8451969999999847,0.6015059680772752,10.701050902300343,-133.03046239951215,-1.4101342133240673,0.32482828922779,0.6537982479053578,0.07453683302819754,0.22595838079518757,-0.08417604599434556,,,none
1.8545550000000048,-0.45940217183538695,10.836188443929935,-132.11675976704512,-0.9643589138404196,-0.4543173600465984,-0.9707814831631256,0.1475686432531276,0.14078544773184326,0.003947333048234946,,,none
1.8639949999999885,-3.5339669662925655,10.163409324147691,-130.6449079064724,-1.649723525474568,-0.1109845783993886,-1.0217067370170125,0.28177556245223423,0.5495788080834313,0.20403897591075615,,,none
1.8735509999999636,-6.185976387824385,8.147322089161865,-128.31979862716574,-1.3906466972892624,-0.5884596152360019,-0.9104330540633566,0.0032688635706349715,0.6647072435094744,0.35928085991728,,,none
1.8856940000000009,-9.213384707044316,6.1167321261299135,-125.43012819371914,-1.3998444357849498,-0.42728448989210177,0.3109177702200673,0.016457832823172997,0.727941462716765,0.47033195137865924,,,none
1.892567999999983,-10.825634714475594,5.088240406314343,-122.43953940979206,-1.5440312459166636,-0.07978171237566944,-0.6018331451709923,-0.008339170456042237,0.38323953606141165,0.4497103750373485,,,none
1.9022699999999872,-11.534555134379243,4.246117971056501,-119.80944446888067,0.15484012518514553,0.19183729770011518,-0.07742717478513475,-0.0868798777625897,0.20861705002247877,0.3569460140473988,,,none
1.9115779999999631,-14.568782667636734,2.263616408822759,-117.90825258287451,-0.5179016472857745,0.5703988199812187,-0.7564884135094724,-0.07464118034492924,0.7229233953695213,0.23525503578914214,,,none
1.9212989999999763,-17.281246841006812,0.2976156002823527,-116.66406499957631,-0.6262423928578803,0.2400656457202669,-0.45919960012871486,-0.12048452993415987,0.6623670855243459,0.07769831613098392,,,none
1.9308069999999589,-19.577920351285222,-0.6734721819039198,-115.98077956309162,-0.47485589089645197,0.40132006456153835,-0.2748468327731066,0.011346604906992774,0.49854529626024774,-0.04681298094236125,,,none
1.9425669999999968,-21.357562358848938,-1.5182850085334714,-115.15201564314512,-1.263644476037527,0.16263291109054848,-0.7908353082895565,-0.016257052068466612,0.39408342320317236,-0.016846501644501157,,,none
1.9498140000000035,-22.548499749554882,-2.350474451664062,-113.61896929601662,-0.6689170476463954,-0.5946114679595615,-0.05067513618445187,-0.06993108694714434,0.28474866439157387,0.12814759792310346,,,none
1.9591409999999883,-24.975994901174918,-2.8270432343611898,-111.40467432240109,-1.0896223817715394,-0.5032802845772305,-0.5343800676492803,0.08002535885822272,0.48460290875844436,0.26269630033065966,,,none
1.968638999999996,-27.19266038763119,-3.2027579974401283,-108.43917614442863,-1.3146021953582443,-0.31664597008225165,-0.8416460089946832,0.06310223919264105,0.44098036758964904,0.42119944438492113,,,none
1.978371999999979,-28.46428967489083,-3.5018445583040325,-105.08299408051445,-0.8332236155443359,-0.38530051387949005,-0.3844501674456225,8.070112863172826e-05,0.2579997231651443,0.5091761304395778,,,none
1.987862000000007,-29.434759656000924,-3.5272969640823812,-102.11523037546593,-0.6945428994581774,-0.033224079274063664,-0.5053459507033945,0.025529560357420593,0.1864472277053192,0.44567447083646905,,,none
1.9973889999999983,-30.56323716464724,-3.878099377847973,-99.70356968527732,-0.45577730142200623,0.3856889443791988,-0.5192181781897063,-0.04149360172799593,0.23047747525917459,0.33267073197665425,,,none
