timestamp,roll,pitch,yaw,acc_x,acc_y,acc_z,gyro_x,gyro_y,gyro_z,acc_mag,gyro_mag,markers
0.0,71.08249953995768,8.99274727537063,148.29263940784784,-0.034775273441064666,0.0924458517290303,0.05881762741400786,0.0534473628298713,-0.06844318188825103,-0.02622908658270857,,,none
0.009519000000011602,70.63844855827973,8.996179589461377,148.2498475867194,-0.0353339852779886,0.13658206707239892,0.064841090846046,0.04603801848550763,-0.053960329594257235,-0.026179918871381897,,,none
0.01903599999999983,70.23620959767672,8.892816000785228,148.2629660870738,-0.02149029981529256,0.1591355374211508,0.07773645123074888,0.04598652828211304,-0.028529709989599732,-0.014056221231023264,,,none
0.028539000000023407,69.89737161434816,8.678341172209931,148.37044339062734,-0.005216656958824295,0.14598662223621053,0.0899679483997634,0.050007990301686386,0.0003891839635120991,0.0005134106192809513,,,none
0.03799399999999764,69.75080706653063,8.434899549402363,148.54266655818458,0.00840356048879766,0.12650883890622744,0.10525502854778583,0.05020229556288474,0.026434897960932482,0.00769801971694944,,,none
0.04751300000000924,69.66814389804128,8.152931327428437,148.72564843316505,0.042027012517856434,0.10380559255090599,0.12542710642732147,0.043324953939319844,0.0397451224549529,0.009561170930405228,,,none
0.05702000000002272,69.63953906088385,7.9157995430289505,148.8880850091245,0.03923058580604684,0.09715588071319882,0.11948792630593105,0.0,0.0,0.0,,,none
0.06651800000000208,69.66040627504553,7.774133148386667,149.01508931812643,0.04136237544629362,0.09660663439079652,0.10455523526653877,0.0,0.0,0.0,,,none
0.07608100000001627,69.59538223497648,7.722013186448429,149.07205986936188,0.05032996640030911,0.10577811625556952,0.0825383243059832,0.0,0.0,0.0,,,none
0.08560800000000768,69.52734435182654,7.7304548473806705,149.10590763057482,0.04199494536843552,0.13721511787021018,0.04781483160600609,0.0,0.0,0.0,,,none
0.09511800000001358,69.46428308581461,7.7382067635641585,149.14933908958685,0.028734890822846686,0.1531288478291027,0.01947922856702881,0.0,0.0,0.0,,,none
0.10463000000001443,69.38108023407122,7.678635647414721,149.21087567764843,0.023818018716202823,0.18470061203613392,0.007598485325439188,0.0,0.0,0.0,,,none
0.11414500000000771,69.26016667336518,7.518390207770196,149.31609366226698,0.02445080650217123,0.22257719187834035,0.012466528906259502,0.0,0.0,0.0,,,none
0.12364900000000034,69.14730388492887,7.296820295678976,149.46368624793212,0.035110074571010313,0.20090673798044578,0.023777685226304735,0.0,0.0,0.0,,,none
0.13316500000001952,69.05551991644018,7.035909181018437,149.61401025320163,0.031195125014846056,0.15522737552403146,0.051357275386310144,0.0,0.0,0.0,,,none
0.14266299999999887,68.97395959979384,6.789471226588796,149.72596594189375,0.035529635630084086,0.13635476313717373,0.04798734400253995,0.0,0.0,0.0,,,none
0.1521720000000073,68.9370271689699,6.6295786323245975,149.83364508239987,0.05122373301761082,0.09789661758202825,0.04222554402633601,0.0,0.0,0.0,,,none
0.16168100000001573,68.94485743101497,6.561306195574584,149.93152197442288,0.042071560233815426,0.08064776232295685,0.034754536234352935,0.0,0.0,0.0,,,none
0.17118899999999826,68.96103318223189,6.552580809983077,149.98831600694248,0.021705560814180517,0.10505486034335823,0.03554760690054932,0.0,0.0,0.0,,,none
0.18070400000001996,68.96811008462313,6.586380853740407,150.0039117271334,0.014195931455821159,0.12347134581127844,0.03842861911577699,0.0,0.0,0.0,,,none
0.1902200000000107,68.96519703882261,6.632760492162953,150.00401225976887,0.02148078762106162,0.1262809403173768,-0.01735808319235545,0.0,0.0,0.0,,,none
0.19973000000001662,68.94269504168476,6.631468488417453,150.00334891715568,0.02394598746409652,0.14108689010051786,-0.033122373256444126,0.0,0.0,0.0,,,none
0.20923400000000925,68.8822379130995,6.575375897942008,150.02061030070035,0.0382122930490273,0.1616949088944337,-0.03242772651359099,0.0,0.0,0.0,,,none
0.21875,68.7858170277155,6.497576376810449,150.09205728249134,0.06193082198511251,0.15998630089812355,-0.022976587857968793,0.0,0.0,0.0,,,none
0.2282600000000059,68.67631697835328,6.414739616877973,150.18815207994032,0.07621327617574261,0.12965205232292484,-0.01485795368416473,0.0,0.0,0.0,,,none
0.23776000000000863,68.56891869461369,6.3438113412344705,150.27032768189218,0.06629902881235873,0.11415156601599662,-0.008668135633981961,0.0,0.0,0.0,,,none
0.24727700000002528,68.49029646686591,6.318727362167398,150.32344871139614,0.05367380042361221,0.09279024425528376,-0.006257397882928505,0.0,0.0,0.0,,,none
0.2567910000000211,68.4410299103652,6.35037655035898,150.35469009716664,0.04460152185280165,0.07482451064024437,-0.015751188930543673,0.0,0.0,0.0,,,none
0.38024599999999964,74.87930100504933,8.406058418849028,150.412838093383,-0.07306673297723922,-0.009417547571483635,-1.0824239744157877,-0.26725995587698925,0.010018236352987679,-0.051580008000469996,,,none
0.3896780000000035,76.24071433611338,8.994332064843654,150.42201690058775,-0.020131809918645355,0.1858199984473762,-1.0046633071058018,-0.292512946448841,0.030366447673090935,-0.05619469878301299,,,none
0.39924800000000005,77.2869018188181,9.478962735752313,150.36992428544067,-0.037627778351708024,0.15541556528698922,-1.1012446126666535,-0.22772935556981205,0.017541281417383116,-0.06659443198395718,,,none
0.4087600000000009,78.07701806080622,9.825814198770441,150.2512203016103,0.015777690456833825,0.13885599763265477,-1.2048116530880857,-0.16990386983626793,0.01676384036731508,-0.07068108689401514,,,none
0.41827700000001755,78.71748266371452,10.070745265594159,150.16743142008394,0.13038727632527683,0.12984580599600168,-1.133863940494249,-0.13400375402141482,0.020079580060243435,-0.058752049101943385,,,none
0.4277890000000184,78.99913033293046,10.293839920150877,150.11239155232767,0.1953547316974378,0.06706739893280113,-1.1411730196244607,-0.07036848591944606,-0.011171865457242015,-0.04291372706656456,,,none
0.4372160000000065,79.04081891851298,10.564489607294073,150.08487568452227,0.17858945874737464,0.04651498251346515,-1.102962629860157,-0.03409192581792638,-0.042921569268233886,-0.029728070324867954,,,none
0.4467290000000048,78.87187836291085,10.944746187092449,150.1167912837463,0.14052721742913382,0.07349326572254528,-1.0297075875224833,-0.009080744521894609,-0.08258583350123906,-0.007158259962705592,,,none
0.4562439999999981,78.51992106800049,11.434025499234032,150.1719287674363,0.039936771211092195,0.006280146886111581,-1.0133115642393897,0.011288059753257576,-0.11938522146209617,0.004097178733190164,,,none
0.589382999999998,77.87534440445054,17.26911452236303,149.39402788623198,0.07901418885846505,0.01517996949171192,-0.9771405614486605,-0.0010370994022801045,-0.08846216933254739,-0.023074420298599692,,,none
0.5990749999999991,77.63461242451427,17.622690920082043,149.34512771874628,0.045174896743200056,0.009497889197156774,-0.9461378264142669,0.0035504686143011926,-0.08434909012760543,-0.0116609706034285,,,none
0.6085820000000126,77.42902117895606,17.96619407649864,149.35566766442597,0.0026216954103816287,0.0032956926919191424,-0.925277952427133,-0.0012847100978994716,-0.07916089613540109,-0.003537359884124719,,,none
0.6180920000000185,77.27685814598638,18.3160913971761,149.37749483107316,-0.035856252337184015,-0.002071883231602085,-0.9187505135160696,-0.010723989842588679,-0.07505243272246079,-0.0070594034391519645,,,none
0.6276110000000017,77.18290935541647,18.683522421834265,149.3734106466694,-0.05298875117391177,0.006688472616895006,-0.9215851974177756,-0.02204937550391887,-0.07242790115589624,-0.020980022702351116,,,none
0.6371160000000202,77.145744093012,19.078628022278366,149.32546745375728,-0.03637273657043665,0.014161187484346558,-0.9269653260615849,-0.03419370649570633,-0.07169425256980709,-0.0349861147030245,,,none
0.6466290000000186,77.14598424435978,19.4993055879523,149.23523939886113,0.006260737583874471,0.010688511857176517,-0.9378518339882318,-0.0429894807949333,-0.07244321645363283,-0.045430399595057167,,,none
0.6561440000000118,77.1613321915239,19.931883761372717,149.11281717632758,0.09579888244387322,0.12754211753703545,-0.8910768562958481,-0.046794404437349266,-0.07295144631934766,-0.05076302979004195,,,none
0.6656619999999975,76.78004856437103,17.238852129756502,149.44426185807305,3.812786752593676,4.100110826506036,6.379402778434765,0.3376025480583547,0.4267577682635076,0.08370458631442813,,,none
0.6751560000000154,66.91804311467547,12.874805325803413,157.0174174214467,-0.7534569655818237,-1.655261629487855,6.008269095146607,2.098085527990497,-0.08335485076717822,2.04948186040064,,,none
0.6845710000000054,51.955252880468734,12.139187726458982,156.8193939672263,-1.9747019183302637,-0.61783393757654,-6.655740383982232,2.7486120732142014,-1.0111142632207504,0.6023083639219674,,,none
0.6941850000000045,53.835400268200715,11.83361659422313,155.12410482134658,-1.6435475696891537,4.310136604383691,6.07185713481053,-0.3117604538193653,0.20547699435968172,-0.45104741347968164,,,none
0.7035240000000158,46.58877478802912,15.145574451529953,153.8237208808782,-2.295194783943392,-4.843588514179877,-4.012128392021658,0.9911440064149679,-1.2032465666321202,0.019872942395478935,,,none
0.7130290000000059,39.712954392471595,16.16524597710745,148.57808593448587,1.6460326569528791,-0.18834559031540568,-0.6405954926568403,1.0663324596858976,-0.814001952922732,-0.7499461218099082,,,none
0.7227100000000064,38.74161029277372,14.368364077674324,142.1727678796761,-0.9409127085337481,1.3803989381459227,0.792870893607235,0.3586099416368031,0.19078262883758298,-1.2943239488266713,,,none
0.7320500000000152,36.649641129844376,14.578252477107396,139.67894049918607,-0.2496659855708368,-0.41850071511622733,-1.139907455279913,0.2891156336167832,-0.2875821110225906,-0.44726307531295123,,,none
0.7415610000000186,34.17305038978052,15.365091052060892,141.11825272436963,1.5248200928810522,1.097329927410055,-0.993534016045258,0.26934779677619464,-0.42647134674698395,0.3831565167698098,,,none
0.7511270000000252,35.772973297334886,13.078815859992408,144.06436126340856,-0.4681189602155436,-1.618032404142815,-3.090650691654385,0.03170023174495725,0.5522970027717408,0.5234528234137539,,,none
0.760766000000018,36.17652283877617,9.11534296955428,147.6718467245408,-0.8235175975843905,2.6035534785464014,1.9399630384299764,0.3807890999533215,0.7009772950382277,0.7404669321540636,,,none
0.7701600000000042,35.53933892963646,6.990817399771207,152.7003952968453,-0.9973059139964146,-0.6884579719248453,-3.408734393508222,0.3216925940605992,0.3058206433145663,1.0588504186362997,,,none
0.7797770000000241,36.10529023797555,4.53710708383956,155.727027043131,0.7355257467834742,-0.4080381285739391,0.11744232233548682,0.1128727811160512,0.49133523154903563,0.6254956638357896,,,none
0.7892900000000225,33.61638128025026,1.2211184424703383,154.81429188265108,-0.06387048269063555,0.1325214737437666,-0.4518014363053131,0.7304728046107648,0.3938962037374318,-0.1283705176571591,,,none
0.7986360000000161,30.629383052914818,0.520259345243299,152.92228306962355,0.5568605333905661,0.2565092393195822,-0.878287442370145,0.5988125294434111,-0.13741126207931292,-0.36953263620777005,,,none
0.8081270000000131,28.086338814301467,1.7437650888854406,150.66744102049446,1.3417556630695358,-0.6953375185677008,-0.47212300624064274,0.3336092614722344,-0.45606577601613746,-0.4731825868437268,,,none
0.8176610000000153,24.042514233896913,1.6236902864092972,147.51943789708417,0.8551440524123337,-0.06139260228464101,-1.1753794328185028,0.7077302383099702,-0.3938225419930278,-0.6490634713450967,,,none
0.8271590000000231,20.16919170003057,0.9139632131947639,145.66311291545924,-0.28883133370646297,1.180102355680796,-0.47957002626989,0.726154878157759,-0.3071353953147166,-0.39346697543584674,,,none
0.8366500000000201,16.1072342573246,1.0631317285084423,146.6635777550855,-0.816571672414804,0.6898535229198739,-0.46188255354846414,0.6596554813271294,-0.4767266466170741,0.18034647491408404,,,none
0.8462800000000072,11.484812633744294,0.11837092291211905,149.6764717133636,-0.7900471713128863,0.42838424900208205,-1.553412138105357,0.886462028014775,-0.3270735290935224,0.5990395521781936,,,none
0.855684000000025,7.896619374556442,-2.3662389889118645,153.72283812315112,-1.2392753743528298,0.2695918337660033,-0.7874584522911092,0.8686894274948832,0.09656047347559805,0.8158296894036868,,,none
0.8653869999999984,4.479801560322395,-4.061866324160192,157.86649850745818,-0.6059048596612037,-0.6771875478231454,-0.013027180148916582,0.7625200939432032,0.028326264338580487,0.8262930848214294,,,none
0.8747110000000191,0.647684694635125,-5.0314968687232735,160.75846798227596,0.7849182850573544,-1.0992585565212152,-1.469208024293116,0.7842270157494214,-0.0895981821794634,0.5449777739253098,,,none
0.8842140000000143,-2.479687602677431,-6.668963962809775,161.57246046977204,1.0875939197969648,-1.260964189538271,-0.9083627134940299,0.6956249235737187,0.10856497861404443,0.11828966753274708,,,none
0.8937490000000139,-5.2041841456425475,-7.960679824699243,160.35407581011654,0.6439233005682989,-0.8793570476140358,-0.948361256431264,0.5960097831454663,0.06763403870436145,-0.3006645928734892,,,none
0.903236000000021,-7.515921499548575,-8.200697932644164,157.9834647674024,0.36177851210484413,-0.3218558258401305,-0.9541305270036005,0.4455172963939101,-0.11818943211225483,-0.5356335948032728,,,none
0.9127720000000181,-9.652099038671937,-8.570274561913942,155.86888953754598,-0.19479624465902384,0.22410332308807535,-1.0472907238805635,0.4184079218284516,-0.09781490735234256,-0.4856206736856655,,,none
0.922267000000005,-12.064788155826092,-9.471975718774011,155.2173095692767,-0.9873938678001375,0.922346451880148,-0.681240704283799,0.5091408626403127,-0.03322236036191923,-0.2061736682759839,,,none
0.9317550000000097,-14.520968286658222,-9.947889136041518,156.43492154473344,-1.1093842157043667,0.7973693762220045,-0.5703952421763554,0.48126549295705334,-0.11192160216085488,0.17663789311596956,,,none
0.9412930000000017,-17.387357741651655,-10.206709546500296,159.38365565591062,-0.593054599480533,0.20630569631062454,-0.7191905889554635,0.5430335302397523,-0.1650696770273199,0.5141494350880532,,,none
0.9509860000000003,-20.790366423923707,-10.772701629286258,163.3230140245293,0.028517578008389846,-0.11775205162034645,-0.8174261785674668,0.6711008160361429,-0.10772406059193061,0.6950826166215179,,,none
0.960345000000018,-24.176947063688555,-11.024328053525439,166.9201435604392,0.519177691103352,-0.7734670631092532,-0.6487333007516435,0.6564680323028567,-0.12314166879233185,0.623001638065085,,,none
0.9698250000000144,-27.712157118927284,-10.697298757868944,168.99746285466506,1.041909845807111,-0.732676552422327,-1.1712308356943004,0.6661047450601841,-0.20974474580999997,0.3069595722039649,,,none
0.9793500000000108,-30.99710633086596,-10.690486708038934,169.48669403930984,0.9641194207567515,-0.5424089102480694,-1.2920778759270841,0.6346918507915682,-0.12250128803316117,-0.005439769913542202,,,none
0.9888540000000035,-34.02744789717748,-11.366259800665382,168.90553494446596,0.12111315763856911,-0.439323078973601,-0.9814061228196417,0.6104642508138626,0.02098043933028477,-0.22277394755610602,,,none
0.998345999999998,-37.1250920486434,-12.213302740081932,167.81988066983078,-0.5241743153396881,-0.03221403852077199,-0.838925908196625,0.6289987203022125,0.043440234987001454,-0.3387303332912583,,,none
1.0270519999999976,-46.83718492308748,-14.338924903008909,170.02616017392353,-0.5403772522541617,0.010567718196077833,-0.6529478934477299,0.6566610035839503,-0.07045855531730129,0.27315986292549543,,,none
1.0363780000000133,-50.251570639215196,-13.625963334127531,172.53455702716857,0.09083686836472742,-0.3664931079956392,-0.8662106873314916,0.6338097356399252,-0.24252383365405453,0.37098553034007,,,none
1.045897000000025,-53.727098742185674,-12.356773503163025,175.04786664597498,0.6006884146115128,-0.41592226315655767,-1.1660543235800387,0.6463755460392128,-0.3265183833020193,0.369879989803102,,,none
1.055402000000015,-57.01486632517857,-11.015303116663235,176.9111571683376,0.6505906972359988,-0.45107150441059585,-1.2413248648755721,0.6239671479496085,-0.3137148158711209,0.2642141476586523,,,none
1.064942000000002,-60.009669109587904,-9.953832463072947,177.66173410025291,0.6192490861042347,-0.8680311583703125,-0.6549853948624729,0.5786688764042885,-0.24084384456687227,0.06786204038999986,,,none
1.074610000000007,-57.36417312090917,-9.456631020612752,177.93382367381304,-0.5537476005743139,0.199456590199068,7.49110362495142,-0.5256014110193524,-0.079405440459692,0.14377747522539044,,,none
1.0839380000000176,-37.70850676844815,-8.284071401393456,177.41365387628355,-3.4532852852469276,-5.684824249136361,0.5772552625646273,-3.8950921858058014,-0.07447045714538017,0.5038671414729695,,,none
1.0933430000000044,-15.925113591488994,-7.7706029648647785,176.62422547389968,-2.8515598850708073,-6.443861633054845,2.799426296138083,-4.318781799209293,0.1231850291187606,0.4530453723869674,,,none
1.1031370000000038,-0.33491458306524097,-11.727630513296603,176.8220619980266,-0.4565921059081183,3.3789977035750005,3.9046462753642124,-3.027662495471812,0.9622009010603988,0.5681129407214444,,,none
1.122160000000008,36.958072157717076,-20.282372478772793,177.59309572028855,7.082026399110631,-0.42926276750998604,6.3556030161488755,-3.7820899636796477,0.8605178237922682,1.3143736634781742,,,none
1.1315580000000125,45.93236364564242,-21.393239378495878,174.50708294251166,2.47142429259477,0.6639505210330406,-4.181570876759293,-1.6600511287936788,0.3372604794767349,0.022731759686345415,,,none
1.141077000000024,57.644957615060484,-19.92773097647692,171.1771564816723,-0.9684127159687549,0.33816287539880074,-3.5251419828679307,-2.2134405219985256,-0.016598898375973732,0.16301016630638987,,,none
1.1506770000000017,69.51974292968077,-15.645541745673086,172.19674740497615,1.4050557962089298,5.281564559368965,2.5787429530653063,-2.364669190175677,-0.5182329396802189,0.9296615683558952,,,none
1.1600810000000195,70.3867382778258,-11.11915235886196,173.58825915013068,-2.503172426167699,-0.9596297745860708,-3.738712635041943,-0.27980801381515824,-0.8786875869970191,0.3183620511994478,,,none
1.1695250000000215,73.63111952955884,-9.581307550369235,171.58434923655506,-3.5020842338502276,-0.31760624318889064,-2.507730590896946,-0.6734468871689111,-0.22277606407508216,-0.28434821459480625,,,none
1.1790260000000217,77.2779068484359,-10.61964028567728,168.3472937455217,-2.2311339905847007,2.550673410449203,-0.49629332882099886,-0.6716642820635258,0.3301182602255312,-0.5196281405629425,,,none
1.1886390000000233,77.37559901865428,-13.518638378040016,165.90024530430782,-0.5461168834240461,0.25856118625753827,-1.7691032109065938,0.11079677358961551,0.5703752246508367,-0.4854865265427857,,,none
1.1980570000000057,77.9332055051168,-17.60759758718781,162.95959652057803,1.4313505336323764,0.018292256241611078,-1.1720816465301698,0.11627617762448396,0.8178965450216078,-0.5582009140864616,,,none
1.2075640000000192,77.6601244388486,-20.987730420760855,160.58948825819695,2.7981530145474256,-0.11409593356178062,-0.6149527047551645,0.2608457289495186,0.626964567392867,-0.4921666780062542,,,none
1.2170810000000074,76.16642605053418,-22.096145774277577,160.3204918471774,1.5542588655911895,-1.7838349705517142,-1.3631655255802824,0.3364347247095129,0.11612025943845886,-0.16359279476457925,,,none
1.2265900000000158,76.3527070869285,-20.80390600252863,161.19441943183543,1.8357986014380407,-1.0660547519087793,-0.4874899500934495,-0.11809513805638913,-0.23293379190257132,0.18848908616565818,,,none
1.236284000000012,77.23888784108598,-17.909042263186972,161.02354524246763,-0.16881811230738097,-0.5851334256096304,0.19986391334856377,-0.3461018525864843,-0.4943006411207536,0.024457640707716916,,,none
1.2456099999999992,78.64581873782613,-14.394316855920604,160.2263569987235,-1.9309133869447492,-0.27680859992275053,-0.017185610095449326,-0.4887780107641463,-0.5741789248337638,-0.08132734549406227,,,none
1.2552900000000022,81.26206831882337,-11.49220720844726,159.06910072538795,0.12769780306538664,4.189984333062431,2.79803936463078,-0.6807763678297692,-0.3671961446227292,-0.11436673010975462,,,none
1.2648100000000113,74.08349932410697,-9.924638849228458,156.91876503125263,-0.14964499759000954,4.088557776156723,7.9433762560742265,1.1921897458878405,-0.8199194957367457,-0.697025564130225,,,none
1.2741370000000245,55.78613158563644,-10.02001628753343,155.799421156049,-4.756475634673539,-3.777965533752419,-3.2327901054013397,3.313582839475196,-1.429774417001353,-0.856669227812616,,,none
1.2838270000000023,48.186712348510646,-14.035191809964989,154.59581534037136,-0.30156851289127107,-0.3439817712651799,0.4522264030230066,1.6882040812488996,0.10627105719406674,-0.5827116995520223,,,none
1.4072920000000124,36.35988013659555,-31.368836052585017,156.55128590794763,1.7033292666976845,-1.525326408872424,-0.7005970936519389,-0.291983184649156,0.08860503161008208,0.34510434386568345,,,none
1.4168880000000001,37.462423808940606,-30.686218447700696,156.7616109217075,0.5923528176958981,-1.083175168163609,-1.786427715753643,-0.2278971142908878,-0.0505521932728795,0.15587370493916844,,,none
1.426511000000005,39.990816673046716,-30.562666956371523,156.10537913904395,-0.31807007331156945,0.6340330547452543,-0.3215049473701807,-0.40923284837676543,0.15153612431473734,0.1265842551698315,,,none
1.4359960000000171,42.592530198608756,-29.751407189115028,156.36056273565382,2.3130408872190817,1.9314057163082574,4.84110654579649,-0.4777761692388727,0.032879980140490594,0.31277258904728716,,,none
1.4454950000000224,38.726722823838784,-28.660417007240653,157.17967165053452,-1.7996222816486476,0.41527432058370733,1.2827472967272657,0.5351165701704319,-0.4668499457078358,-0.2305651703274136,,,none
1.4548380000000236,35.09288714697907,-29.09618726874953,157.60326558251242,-3.07537149882835,-0.2321823194791183,-2.0894994536523575,0.6219136009270447,-0.16388617508503883,-0.28666263861973784,,,none
1.464527000000004,35.39565679265471,-31.61837459251658,156.73400677087852,0.09139419354612244,-0.5466885862053976,0.48713731321773823,0.14757869554940622,0.4859546347991687,-0.1545944621756417,,,none
1.473872,35.26037077924202,-34.23521518081302,155.2322686997228,0.3190378121265261,-0.8766395200013664,-1.0098109414881948,0.23395034887799304,0.46961594318484823,-0.32553965851519245,,,none
1.483378000000016,35.95455925044103,-35.409667479891525,154.21761598968985,1.8065966617213511,-0.9447247753749651,-1.3908607443243999,-0.0028506279607282367,0.26144368311295435,-0.13482504614820492,,,none
1.4930650000000014,36.58229411502896,-35.20299464723151,153.7426292070963,2.7989498379437685,-0.6372151867456893,1.5402274779660545,-0.1103316900335661,0.007758137810864605,-0.03371922890544931,,,none
1.5025690000000225,33.70564356721347,-33.25175165657962,154.47117181864624,-0.6554457979722614,-0.2795449675540197,-0.5415332899257173,0.2584080960482219,-0.5592545161460836,-0.200590302552671,,,none
1.5119080000000054,32.51839005479625,-31.557202844393853,155.5557665478579,-1.8513555254903686,-0.31994149988857734,-0.9925748043285113,0.03889627832937379,-0.3923852605304166,0.07050908949803246,,,none
1.5215840000000185,33.005629683621905,-31.98076692028951,155.69810885379087,-1.3987660967421651,0.0014265046131408511,0.4404759059038879,-0.040599050927452654,0.11149052507295903,0.0717700689727827,,,none
1.5310990000000118,33.58302664124261,-33.74182975468854,155.3997295809579,-0.5918866046750108,0.6705010094725022,1.5606533302309342,0.05750353483355905,0.3612954202918233,-0.0020127819730945324,,,none
1.5406100000000151,33.217107248969945,-35.06732148141667,155.75031979919055,0.3394619555981936,0.23828801025126695,1.8905928588281846,0.16481229575633422,0.2167112433325643,0.028838232715920877,,,none
1.6830910000000188,31.341823809868714,-44.563508447892715,155.09637735368005,0.4255310775531736,-0.5705009018210254,-0.712149150489508,0.03807833577814229,0.03628689859250324,-0.013294181862034257,,,none
1.6928010000000029,31.339862632508122,-44.59642529660093,155.2107458975214,0.3969198519454339,-0.3527359208852313,-0.18973375355248795,0.0,0.0,0.0,,,none
1.8164270000000045,28.699911820139313,-44.513312053711815,157.48994204593333,-0.20350051994590712,-0.08790828976393711,0.27390739757297544,-0.01760113448067613,-0.10204437892868211,0.011035422355920576,,,none
1.825915000000009,28.57724716803562,-44.18453882290112,157.57973229163184,-0.3235284248899092,-0.04941161363780582,0.2976844208921592,-0.008910330669734321,-0.06757455824412738,-0.006999258127993691,,,none
1.8354300000000023,28.520482108168306,-44.166967950798714,157.54469804090456,-0.2895442584527781,-0.06855738292342167,0.2322183707044409,0.0,0.0,0.0,,,none
1.8449500000000114,28.496791740296647,-44.44501622604658,157.4384521401333,-0.08699967791503607,-0.12011484974808996,0.1433294252936136,0.024453300571512526,0.05015790777083115,-0.02970410294863369,,,none
1.854455999999999,28.411681782417634,-44.82335225234195,157.40175440757008,0.13604646366296694,-0.2116713276696158,-0.03155263520204228,0.04028815312139918,0.06532451293836979,-0.024120549995479204,,,none
1.8639990000000068,28.230291797756458,-45.10871511305502,157.48232838159564,0.28410181645894456,-0.31506553270267174,-0.24592606080941554,0.04566023025417194,0.042927401878331974,-0.00952556297111919,,,none
1.8734930000000247,27.990902648571097,-45.19126480690135,157.6755289235194,0.3773261461175972,-0.3667444081985981,-0.3438583273454057,0.0,0.0,0.0,,,none
1.8830180000000212,27.74588913316843,-44.99483259027872,157.9295785651733,0.38321403684793015,-0.3577958135742497,-0.29661147086189205,0.017195459441719685,-0.049519286089243886,0.01608174950601813,,,none
1.9020650000000217,27.343940864778702,-43.816879965112896,158.37452297827377,0.10332265542046133,-0.21525129594921402,-0.007246303747563452,-0.027208832050332674,-0.13670256498242114,0.012866649186389183,,,none
1.911545000000018,27.23922972804308,-43.12579821577591,158.43606757799822,-0.0863950763694998,-0.13376173505575537,0.13935025590851693,-0.036798457720054266,-0.13431224551792303,-0.002153543927213954,,,none
1.9305549999999982,27.15533464093008,-42.264660840203746,158.26129447660904,-0.19224210379837575,-0.06863480223423564,0.23272395739634913,-0.01873310877859231,-0.06046652903230591,-0.02837898466060909,,,none
1.9400620000000117,27.104134588922264,-42.18969324031425,158.14047870760226,-0.10008941987192432,-0.11439645161083868,0.14467633878152525,0.0,0.0,0.0,,,none
1.9496030000000246,27.00975238008999,-42.27137877707436,158.07597334675,0.05253538736204647,-0.1932915712151701,0.00010411371862668466,0.0,0.0,0.0,,,none
1.959083000000021,26.867240891657357,-42.36580215531469,158.10087988571075,0.12047695804024387,-0.28631114049320233,-0.2369976389415134,0.0,0.0,0.0,,,none
1.9685810000000004,26.889455953079334,-42.4030278833889,158.18242080779694,0.28293539311846155,-0.3249662867664157,-0.5680524699522984,0.0,0.0,0.0,,,none
1.978098000000017,26.871730029474648,-42.67898395893894,158.0865209422289,1.779628166004064,-0.33847489234933154,0.822556133363829,0.02301804197068276,0.050323108160063745,-0.021579186012202635,,,none
1.9875900000000115,25.901125129718736,-42.740696871371696,158.1601074561738,-0.24836807597044663,-0.2928203466570686,-0.5627119438206101,0.13715137626675994,-0.04175145628375906,-0.1171180452135888,,,none
1.9971370000000093,25.281408607001122,-42.39356106280746,158.80316113333515,0.008489591970543449,-0.45864480287832854,-0.3698419716243089,0.05950209130938845,-0.09821560691211474,0.044732581090747854,,,none
