timestamp,roll,pitch,yaw,acc_x,acc_y,acc_z,gyro_x,gyro_y,gyro_z,acc_mag,gyro_mag,markers
0.0,-44.43306105505138,-3.7185752910167014,126.7661337939397,0.19767577008697204,-0.10713484629823301,0.07931009845906467,0.0,0.0,0.0,,,none
0.009566999999996995,-44.48423137418343,-3.541419503476783,126.7038326940299,0.18514774460098798,-0.09205327756004,0.08051385101733556,0.0,0.0,0.0,,,none
0.019075999999998317,-44.58910217121082,-3.4034809446914127,126.63476895623265,0.1646394592915641,-0.07787030352170395,0.07502022260240922,0.0,0.0,0.0,,,none
0.028579000000000576,-44.73843382875945,-3.305633304809893,126.56047362227247,0.1438528982653681,-0.06856298990966392,0.06602006272034391,0.0,0.0,0.0,,,none
0.03810500000000161,-44.905982021901146,-3.2398073165104333,126.50370606647778,0.14094332789444292,-0.051594262515327526,0.03084319905881651,0.0,0.0,0.0,,,none
0.04761599999999788,-45.067447950472214,-3.1811499266227536,126.4856580162333,0.12953156210088812,-0.05504144753037304,0.016840860718390787,0.0,0.0,0.0,,,none
0.05712199999999967,-45.20238512090857,-3.097505251776872,126.47899768726371,0.12921089271362643,-0.06293374018488113,2.139461111441943e-07,0.0,0.0,0.0,,,none
0.06662999999999641,-45.28874257479593,-2.9644118190920468,126.46876447891123,0.13298950380075078,-0.08246049173918493,-0.009503103700254277,0.0,0.0,0.0,,,none
0.07614000000000232,-45.32391032360064,-2.7748725592511794,126.46753187177676,0.14147521061240545,-0.10191016794235609,-0.013631701902190003,0.0,0.0,0.0,,,none
0.08565399999999812,-45.3091502339282,-2.540941437936696,126.4834520387784,0.14670561097358426,-0.11607254335226022,-0.007950837146166567,0.0,0.0,0.0,,,none
0.09515900000000244,-45.263111196522964,-2.2868682132777907,126.48584766417716,0.15004948899353096,-0.11523816539573772,0.0015618326862687308,0.0,0.0,0.0,,,none
0.10466799999999665,-45.21122620894452,-2.0456590215518227,126.43023888495603,0.15141209199058997,-0.09816790117967049,0.010046232807957092,0.0,0.0,0.0,,,none
0.11417900000000003,-45.170158116995175,-1.8464343059200623,126.37070545225602,0.1468515135804014,-0.07685047874388806,0.02373756866629936,0.0,0.0,0.0,,,none
0.12368200000000229,-45.1682257414413,-1.7046131010541499,126.33300518645933,0.14493977653329324,-0.0478949426427563,0.03222299081174129,0.0,0.0,0.0,,,none
0.13320099999999968,-45.20966753645461,-1.613134811447661,126.27713424016763,0.1425109907890464,-0.029178305355966102,0.03846529105820612,0.0,0.0,0.0,,,none
0.14270499999999942,-45.301252247387325,-1.551821912608345,126.21036929253691,0.1446441355546156,-0.01816720545526918,0.03724114738253206,0.0,0.0,0.0,,,none
0.15221700000000027,-45.43226306248334,-1.4923341684956157,126.17900732356001,0.14856682417308945,-0.024029119712708706,0.028415152968272694,0.0,0.0,0.0,,,none
0.17124100000000197,-45.73906586183383,-1.2943781491260902,126.25963101044667,0.1519866638761248,-0.07283187919499126,0.0038816657055405217,0.0,0.0,0.0,,,none
0.18076200000000142,-45.879873707370294,-1.13871826429964,126.36276450708037,0.15033189547744216,-0.100092129604722,-0.01176763312134801,0.0,0.0,0.0,,,none
0.19977500000000248,-46.07413014307247,-0.7683656949701964,126.38989200271133,0.13640602811306685,-0.1255947760639905,-0.03643936395854468,0.0,0.0,0.0,,,none
0.20928299999999922,-46.11872899169122,-0.6047362544930903,126.40531665916245,0.12458759677393448,-0.11424145170858971,-0.03298013749679076,0.0,0.0,0.0,,,none
0.2187940000000026,-46.12952750528504,-0.4785405993675573,126.38834342296873,0.10652543269986009,-0.096772120744949,-0.028427342438898683,0.0,0.0,0.0,,,none
0.2283040000000014,-46.12163185158237,-0.3955403913224485,126.35652232068522,0.09116911925293462,-0.07087494048343908,-0.030968932568691064,0.0,0.0,0.0,,,none
0.23781699999999972,-46.099774776028504,-0.3489128758178752,126.33337429747688,0.07809269752010445,-0.051961518760397556,-0.03145099538046048,0.0,0.0,0.0,,,none
0.24732900000000058,-46.06394542965368,-0.31812214978879677,126.33337266691159,0.08903198782209351,-0.03223211169612694,-0.006857189197859124,0.0,0.0,0.0,,,none
0.2568509999999975,-46.01305729008126,-0.2841327534711812,126.3629958574791,0.09726945430551628,-0.03247506417121514,0.010123659253901306,0.0,0.0,0.0,,,none
0.2663599999999988,-45.959429505239676,-0.2295074697189834,126.41696963465549,0.1120769748614747,-0.044628857253960263,0.027558946679561405,0.0,0.0,0.0,,,none
0.27586399999999855,-45.9197350063381,-0.14745846884130084,126.48400263603268,0.11947763672219641,-0.07282410449783874,0.05415000826884448,0.0,0.0,0.0,,,none
0.28537800000000146,-45.900872516315246,-0.04183521495260989,126.54758061614318,0.13583730503362829,-0.08979546226135418,0.05732081374114692,0.0,0.0,0.0,,,none
0.2948829999999987,-45.91536687234234,0.07558599152112747,126.53573996288884,0.14298905846578502,-0.09973063979039265,0.05753853973189187,0.0,0.0,0.0,,,none
0.30438499999999635,-45.96090585931597,0.1949710112200803,126.53379629814648,0.1372903446412578,-0.10245353344566323,0.051564654119245025,0.0,0.0,0.0,,,none
0.3139060000000029,-46.02973542559669,0.3054656838118808,126.53203606591143,0.11966083581056142,-0.09453262849632617,0.04212283023351805,0.0,0.0,0.0,,,none
0.32340899999999806,-46.11013718801658,0.40402747923165155,126.51314148740776,0.09802847416416285,-0.08140024105869895,0.03242683606204763,0.0,0.0,0.0,,,none
0.3329260000000005,-46.181774455502286,0.48475474058164764,126.49219302692481,0.07396979543865535,-0.06564302825239823,0.02210837728614738,0.0,0.0,0.0,,,none
0.3424350000000018,-46.22430890062535,0.5481481904571464,126.48202220678738,0.04537608663429506,-0.061362519401951116,0.0007301502889774194,0.0,0.0,0.0,,,none
0.3519509999999997,-46.22768514233078,0.5990074525043756,126.4926525823536,0.03992566673587027,-0.05397091506969303,0.0007018838838452599,0.0,0.0,0.0,,,none
0.3614480000000029,-46.19272417625801,0.6414075549717813,126.52995910621506,0.04271510235826237,-0.057663065725197374,0.000803372041849021,0.0,0.0,0.0,,,none
0.3709699999999998,-46.13571075300138,0.6804136381622542,126.58969037467043,0.06920482644440948,-0.056257490322741736,0.02395147289412221,0.0,0.0,0.0,,,none
0.3804809999999961,-46.07404812751092,0.7277196917940331,126.6599712346775,0.09344111882796041,-0.07071581665825499,0.03541871095928029,0.0,0.0,0.0,,,none
0.38999199999999945,-46.02925318992408,0.7868515839324699,126.72548196674278,0.11621516213901383,-0.08135924462936926,0.04797870838303293,0.0,0.0,0.0,,,none
0.3994989999999987,-46.01472724492397,0.8553611179779466,126.7733668739048,0.1320090394388728,-0.08479941020886331,0.05915817081831957,0.0,0.0,0.0,,,none
0.409002000000001,-46.03698262332855,0.9290848711001051,126.79786436190606,0.13628196083540497,-0.07942840723359158,0.06618414710205497,0.0,0.0,0.0,,,none
0.4184229999999971,-46.1005718576285,1.0023281900813166,126.80039144382147,0.1294537433789159,-0.06817506388595443,0.06760098158995621,0.0,0.0,0.0,,,none
0.4280329999999992,-46.2018572930927,1.0654295514557546,126.79372314224152,0.11327594773522577,-0.05239108221959085,0.06392768470189743,0.0,0.0,0.0,,,none
0.43716899999999725,-46.318451518806064,1.1144437115578816,126.79045139682924,0.09406443332357989,-0.041474827225888904,0.054621757304268784,0.0,0.0,0.0,,,none
0.44695600000000013,-46.448629775579334,1.145141370547166,126.80483553474645,0.07494540401968132,-0.03555812030000398,0.04218790534571368,0.0,0.0,0.0,,,none
0.45656199999999814,-46.56797608360274,1.1607991882164082,126.84286328560943,0.06165138604666912,-0.039377144132565954,0.028568408520504913,0.0,0.0,0.0,,,none
0.46607199999999693,-46.66392996637212,1.1675491641826115,126.90618283754746,0.04563100014595785,-0.06076112920568643,0.0015486558837532892,0.0,0.0,0.0,,,none
0.47558500000000237,-46.72048999275979,1.1732975442378912,126.99030949542873,0.05754885806823797,-0.07639679425332185,0.0019589232434866362,0.0,0.0,0.0,,,none
0.48510000000000275,-46.732763952947934,1.182589866178477,127.08473430341817,0.07184538058887989,-0.09504924890922459,0.0024595633073617833,0.0,0.0,0.0,,,none
0.49460899999999697,-46.69769701559569,1.1969698731546663,127.17455871699642,0.06858284062687285,-0.1212407333559192,0.02042906909260796,0.0,0.0,0.0,,,none
0.5041209999999978,-46.65149121668773,1.216021981825241,127.252412398241,0.09221925015339924,-0.11616084241398066,0.05101742547228342,0.0,0.0,0.0,,,none
0.5136249999999976,-46.627310710451134,1.229624195090266,127.32441286553838,0.12424928826521148,-0.09178623232272837,0.04887022630513041,0.0,0.0,0.0,,,none
0.5231360000000009,-46.632647030385044,1.2201396144830117,127.39914196954423,0.13440876539683808,-0.06318328865566607,0.07524018411317016,0.0,0.0,0.0,,,none
0.5325869999999995,-46.58045879188687,1.0854219945478725,127.4796708081673,0.1344051116977109,-0.030401284491357,0.09518749166337696,0.0,0.0,0.0,,,none
0.5420930000000013,-46.56757569843545,0.973442240718779,127.56702076689288,0.15533489032066525,0.0050659334801205335,0.0968399074616773,0.0,0.0,0.0,,,none
0.551679,-46.77253705588525,0.9647577089473345,127.67888676970023,0.18707557302729796,0.03743868418227886,0.07018735492671246,0.0,0.0,0.0,,,none
0.5611689999999996,-47.013000463362026,1.005179685475886,127.8338166832439,0.17403809193953948,-0.016412331610527166,0.06330220181481083,0.0,0.0,0.0,,,none
0.5706869999999995,-47.40553697007768,1.1255662743913966,128.0428064962281,0.2160419624380686,-0.07332803649202282,0.004038769904353486,0.04518065794667269,-0.029722343881464552,0.04341741417425126,,,none
0.580135999999996,-47.73739817786036,0.9904013985072236,128.30515801577047,0.28536367954013236,-0.11377611611564428,-0.2049545836927864,0.06233580968904312,-0.035499270793801156,0.05375223413890822,,,none
0.5896449999999973,-48.36428652493528,0.8326630400052586,128.5105558481139,0.10818973426890106,-0.3172727317383628,-0.20123411393873522,0.10271609650740028,-0.07872211014358517,0.0431197670066577,,,none
0.5991519999999966,-49.338236542723635,0.7046020602721611,128.52766640513676,0.32048774888840015,-0.22152764017242155,-0.4106265930780276,0.14149405463848036,-0.13659003121243313,0.0060418383860655536,,,none
0.6086329999999975,-50.32330087767228,0.5432110150126397,128.38357831234543,0.12700151452651315,-0.36897396170257873,-0.5491904694060509,0.14795572423612982,-0.13434426692363285,-0.026699898394709425,,,none
0.6181410000000014,-51.81408073066706,0.2814366611983809,128.07544963938918,0.040659185350285725,-0.1741574930976008,-0.782839044381545,0.2258701157431804,-0.20203339818638136,-0.05954102640780095,,,none
0.627673999999999,-53.65723353875461,0.005381101803247595,127.5778048125093,-0.07644708554952728,0.04987280866499915,-0.8524153003101751,0.26997357593225885,-0.25759806079356784,-0.0987036296491879,,,none
0.6369979999999984,-55.483884427449986,-0.30064796960479717,127.07590684510384,-0.156169108329435,0.11380671930835684,-1.0455319370093448,0.2704836522032042,-0.25367557294069704,-0.10142288243101236,,,none
0.6465060000000022,-57.36904198110702,-0.7495456314997321,126.85701768530542,-0.17620011953322376,0.16930588156468557,-1.1167772092464394,0.29877150292847343,-0.24751876637921516,-0.047281438971519464,,,none
0.656089999999999,-59.05978048174437,-1.2332058768676775,126.88843781301141,-0.16603800913851766,0.12154865419583388,-1.1553808088127582,0.2805573599012283,-0.212661644192589,0.000432058035410178,,,none
0.6656169999999975,-60.52903708897369,-1.6244003842460617,126.96794860788651,-0.08725399078989456,-0.09859906434231996,-1.1913812483299129,0.23929812925564112,-0.18802918011875586,0.008580948855601364,,,none
0.6751179999999977,-61.75762407583022,-1.9559590408913916,127.05957020885015,0.1864194229518978,-0.11605581365894294,-1.2037401541799315,0.20101926571942189,-0.15635867869237585,0.010656668254442971,,,none
0.6846239999999995,-62.486753092087,-2.236775776733078,127.09096391130808,0.034480672863459134,-0.2734138267328744,-1.191852991801901,0.13280908532642202,-0.0824996088183131,0.0009444009028347906,,,none
0.6941369999999978,-63.03587852169701,-2.4486091786628537,126.88294629614688,0.03219110846185902,-0.18268218223847427,-1.1575446039396347,0.09996997229441784,-0.06223122391046626,-0.0461420977174458,,,none
0.7036469999999966,-63.345856631269044,-2.6398490813613584,126.5055987458883,0.0405106545278927,-0.029576771601225543,-1.1166008586150942,0.06775012514517463,-0.026836299266003606,-0.07830558441628173,,,none
0.7130790000000005,-63.4803664453801,-2.9027986251115436,126.17716565456868,-0.09323894200402676,0.07908622933232462,-1.0364970860600853,0.05834723992192853,0.009530343534389241,-0.06705913695312125,,,none
0.7225880000000018,-63.58267791176709,-3.237055794559124,125.96286058298854,-0.0479562353469126,0.2494995140067556,-0.9549026709152081,0.0661383720976282,0.0228692522644418,-0.04400490276040976,,,none
0.7320980000000006,-63.49966205911278,-3.597319408480803,125.86515041411383,-0.08370572776724557,0.14078986637259003,-0.9388862102291861,0.04868716385874569,0.055747618045340605,-0.01857261448661973,,,none
0.7417829999999981,-63.57116730792443,-4.010269276841893,125.91987312852245,-0.12925263984457935,-0.0652846590219994,-0.9053136801477579,0.07535682610311513,0.03690126226175336,0.010003800240058295,,,none
0.7513020000000026,-63.94688801972986,-4.441718660356098,126.03393500632102,0.14475577092986475,-0.010215802162195474,-0.8339815017186634,0.1139811295313509,-0.009963676047072973,0.01729124986160644,,,none
0.7608079999999973,-64.23495099685505,-4.799650029432539,126.04133898176998,0.024070738990598296,-0.22952001072785638,-0.8373634848456407,0.09177224356987788,-0.004324445321177761,-0.0031654774383086297,,,none
0.7703229999999976,-64.80977044237413,-5.105439544311641,125.89360709584749,0.08204327231429662,-0.19016591197739113,-0.8568481213291608,0.11689542700417156,-0.05684152904729281,-0.039514698125738865,,,none
0.7798390000000026,-65.51350153827423,-5.384134081135977,125.66466718829179,0.07115696118974135,-0.0501134879173496,-0.8689511629618788,0.12730203674432108,-0.08120618973035366,-0.05871877819262815,,,none
0.7891630000000021,-66.24802931239918,-5.638719589789768,125.39340165592822,-0.12364173449230827,-0.013693383411307955,-0.9293570791572257,0.1265505015230346,-0.08951295153459517,-0.06843541462583458,,,none
0.7986649999999997,-67.15771482799988,-5.905594390529714,125.15556960883748,-0.034983016572633044,0.14801451316471648,-0.9702598810375822,0.14826993682911813,-0.117083893053619,-0.06593619914374298,,,none
0.8081960000000024,-67.96624163941166,-6.219060439833226,125.07390721535876,-0.08559808114689244,0.11373980981237919,-1.0307845370732662,0.14393504055582765,-0.09557774135011482,-0.03344741181769892,,,none
0.8272849999999963,-69.48657645281723,-6.987770877152573,125.205016450007,0.03779183731787764,-0.025382055605802048,-1.0722381200020061,0.14778447352945845,-0.07172132037164718,-0.0018399816948319156,,,none
0.8367149999999981,-70.02564506641488,-7.389002321751937,125.2374528904502,0.023113288292824236,-0.16147720958464018,-1.0887385504026643,0.12738592574557764,-0.04114752688745074,-0.0070134247602531095,,,none
0.8462120000000013,-70.51015869834214,-7.78304886113161,125.18259304180076,0.06261591691037557,-0.13680294416173536,-1.049532052978903,0.11990438804225485,-0.033076934365289586,-0.023791689229086727,,,none
0.8557360000000003,-70.86668115278046,-8.1298935110724,125.00363201992427,0.017198671568319356,-0.08791487759624682,-1.0031421707727697,0.09746428829495381,-0.01791924573229802,-0.04571333190723186,,,none
0.8654289999999989,-71.17726103339334,-8.425940009602078,124.75284387338557,-0.028391402059990297,-0.0067640434299893895,-0.9635280491155382,0.0838152995232738,-0.016587887496263862,-0.059165067066890044,,,none
0.8749419999999972,-71.5150801450436,-8.698325635506775,124.55474085410677,-0.032754096907723435,0.0967367710585646,-0.9129458403375385,0.08289408260435158,-0.024009029579158486,-0.049734248881487864,,,none
0.884445999999997,-71.86779162486238,-8.967230818143578,124.46824763185347,-0.09029661490039123,0.10932851018228484,-0.8950551759975793,0.08390013207655726,-0.026996233246791405,-0.028161778039725888,,,none
0.8939609999999973,-72.3206321192371,-9.257318413912326,124.47885725886817,-0.04087991839968871,0.05475140011380884,-0.8956325890626131,0.09855427900349312,-0.0409257267368332,-0.012236788024943783,,,none
0.9034649999999971,-72.84066672388991,-9.593434570448112,124.56213552877122,0.00810486255080705,-0.03578326764160407,-0.9170674606751179,0.11365588004731875,-0.04649112959031425,-0.00037911167018635466,,,none
0.9127889999999965,-73.42189807423743,-9.980806265305604,124.64616375992074,0.017889858278103774,-0.12775311143516616,-0.9433334800435619,0.12896629727559955,-0.05034549814555603,-0.0029603122897546314,,,none
0.9318279999999959,-74.66979961379687,-10.80531845621776,124.50940711384814,0.0251425536758564,-0.11913740284289104,-0.9836799865760444,0.13659100884420045,-0.0533592690816593,-0.04782458514669994,,,none
0.9415150000000025,-75.2808430107122,-11.190458129257399,124.39347692492937,-0.00712934485759099,-0.026450139861026244,-0.9804627393122288,0.13155836494196452,-0.05533584481074692,-0.0594609997615707,,,none
0.9508409999999969,-75.84606124068833,-11.525583631617165,124.26740962248726,-0.043053537777648754,0.0644560365954944,-0.9710285839125997,0.11800674133808065,-0.0537297255242144,-0.05786676366067547,,,none
0.9603400000000022,-76.35860309517798,-11.813428830843314,124.19814044476824,-1.1082107277762803,-0.843055062530115,-0.29861469463053897,0.10420330763224558,-0.05063358123995742,-0.042325403933536364,,,none
0.9700500000000005,-69.23685581787142,-11.426271993003862,124.39528297188598,-1.6974404611680154,1.3511546306239017,3.987287325624186,-0.8494340842251596,1.1114120534752117,0.3582869849767139,,,none
0.9793749999999974,-47.977718118228005,-9.173537221888266,124.54341546457478,-8.753131863420359,-3.685040490123589,-2.9549665180118656,-2.716741512027161,3.219055848871504,0.942101559878524,,,none
0.9890749999999997,-26.515315855460088,-9.256882862365696,126.35437109297129,-6.495440747728211,-4.351048453793828,4.003661563536852,-2.447170262678969,3.4657336588075416,1.046604735393128,,,none
0.9982040000000012,-5.587236418630626,-11.341344486046141,129.03061325526014,1.4637693946319696,3.573136773145485,-1.3541662010535886,-2.1950603114872527,3.5160659143104986,1.279179238910023,,,none
1.007723999999996,15.337048971260922,-13.65291013089118,133.11016392809336,-1.4932322137334346,-8.084200778686942,1.804595908442324,-2.3439672807599385,3.3868287804792105,1.7146224849606202,,,none
1.0174239999999983,36.08140030566531,-17.310675896464105,132.9800729836451,4.244824709859125,-3.2818268002964888,5.53576438910569,-2.203228460490092,3.420129659075418,1.0831175580595793,,,none
1.0268209999999982,56.33407778775016,-18.701209266129222,130.25465957196835,1.0658232653339266,3.948511770785114,-4.546611772325531,-2.354514894940323,3.06504616974025,0.7130094570135861,,,none
1.0364379999999969,77.64452694627661,-17.84513297754691,131.78948318300084,7.210800117564653,0.9830313839394401,6.919868785961876,-2.787924884863412,2.9464239914444104,1.641922971874272,,,none
1.0457609999999988,96.96640364577385,-15.018517853228689,133.73015466336034,5.491589800137571,5.954191390982959,0.6294569849844285,-2.931970307951658,2.3447344538684787,1.4794860997114199,,,none
1.0555359999999965,111.18245000091343,-12.340572329152144,134.93518490810865,-2.7357185580171595,2.9863768241573805,-6.495056043375229,-2.3146375067592877,1.6057639543575575,0.9132137068537802,,,none
1.0651480000000006,131.16485929703254,-13.333102275280275,137.00840373068746,-0.43905668608957904,-0.40827553327788474,2.2455742004540116,-2.668737256892798,2.8533623703568765,1.2999513893882084,,,none
1.0745470000000026,146.86060110655626,-15.382206259924333,137.65253042868153,4.071304532546902,3.96609594619891,-6.268104340699973,-1.9623480811779412,2.363403520469399,0.9074923901668404,,,none
1.0839989999999986,151.65964612023453,-15.556431676330035,136.17224400242705,-3.727534962116314,-5.487721312128162,1.5599643061394501,-0.6524478927753112,0.6580269588841651,-0.039937400286215376,,,none
1.0935709999999972,164.1716967589851,-16.412208697569557,133.62740767981077,0.08153584115547717,1.0886438890975971,-3.9014482644327937,-1.5787783316242905,1.8260596767000599,0.18220886570821856,,,none
1.1030719999999974,170.15394461620744,-19.56935213883435,132.46371750651852,1.4166813122448507,0.5548870861754159,-3.689790123605385,-0.3160989382328864,1.263650749289746,0.13724855063396954,,,none
1.112684999999999,169.032081450815,-21.212627814249174,132.91198893581242,-1.3762590622767925,-2.794519574534495,0.8696782060022248,0.3845878864408391,0.06830928720946047,0.011483798805312513,,,none
1.1219269999999995,172.12989616484214,-21.175428490467066,134.29060694547567,-0.29632939544273046,1.6214889642513166,-2.4283044650352306,-0.40421362199388644,0.41364781756173485,0.5001848321993715,,,none
1.1313519999999997,170.51406449200414,-22.007420945936808,136.95736726482264,-0.02967185072336503,2.2775003907826292,-2.0405824920316205,0.3315148692670916,-0.09131787760629426,0.4148346988806686,,,none
1.1410479999999978,165.87225223805567,-22.379527494064966,139.80092631352124,-0.3465321667545344,-1.7948315973607785,0.9200788024243223,0.6927017568990151,-0.5158587291495325,0.21800067201328446,,,none
1.150387000000002,166.8796185440238,-20.894780847383736,141.11532627334432,0.4795145408322433,0.9290906375670758,-1.1293181858069408,-0.33384683890350253,-0.10988986240306178,0.33750323484904904,,,none
1.1599640000000022,166.98462213847517,-20.41724714359465,141.55902942893485,0.7586642158392572,1.8058743169576472,-2.3967385613776293,-0.07509452729756384,-0.062368898378318736,0.0962480378649816,,,none
1.1695849999999979,166.70250198657064,-22.135466140248937,141.26914155233382,0.661961479686499,-1.2258723569893204,0.7115254857618714,0.25570959899924756,0.23608667773666805,-0.07852830098469805,,,none
1.1789050000000003,171.66769023342965,-23.966982035468895,137.7937566138124,1.5172353898424402,0.9033371053855311,-1.3194830451492263,-0.44471470995726514,0.8793243983042915,0.042340100475877766,,,none
1.1885880000000029,177.09840973582843,-25.403072920803165,135.29825093572745,0.9366174423582471,1.305615707262134,-1.211265943314442,-0.517821115835417,0.8890027121463899,-0.0010097084344457164,,,none
1.1982969999999966,-176.2452699804472,-27.130545318232844,133.4464293339094,0.7258314837884805,0.666217104645568,-0.3812980611643305,-0.590269436577938,1.0949459610569692,0.18738080683898892,,,none
1.2077010000000001,-167.14385634956253,-27.95269020710793,132.46836582271695,-0.14233665854908295,1.6328710614036221,-3.530603505227394,-0.9836891065254854,1.2920037191883336,0.5942445158667622,,,none
1.2171319999999994,-161.68554761212462,-26.780017006203654,132.78443241340696,-8.337600791189885,-3.020729058463375,-5.068204449044939,-0.827895572939428,0.5582785917074948,0.649483485882925,,,none
1.226821000000001,-154.20942047032327,-26.531230672141675,133.6159863230646,0.5714011713771204,-0.10754761977209293,3.032258431491447,-0.9470097832752232,0.9464171339431636,0.9624590661761873,,,none
1.236233999999996,-141.34689222581002,-26.933069758945756,134.62459668763518,-0.19590973324790403,3.0514632273304767,-5.1039079700730445,-1.5449588919042176,1.706187066082078,1.3453619707386815,,,none
1.2454910000000012,-143.39038936459735,-26.38669311978507,135.14876830743864,-1.4287517150255824,-2.6166295874699372,-1.3082917943595413,0.17515711738883946,-0.3390789648209457,0.2868496387366385,,,none
1.2551750000000013,-138.70278721958934,-24.300140132194127,135.4133258883417,3.200131265617903,0.7523167314044658,3.8779710020487506,-0.8924138041928689,0.312566309179245,0.771594920044294,,,none
1.2647580000000005,-129.8082759963518,-23.4811128975162,134.2987626246326,-4.359802495411809,-1.461264974112732,-7.257534169545585,-1.2604308091231888,1.0435153757272533,0.5853104937369958,,,none
1.2743749999999991,-130.25838584421473,-24.31759350539614,131.531078021426,3.661234352797478,-0.7669457094714853,1.981759363227566,0.17906910063402073,0.05268597927187687,-0.46158960353326434,,,none
1.2837239999999994,-127.21858886975943,-23.109687311352282,130.70213261677617,-0.5228049146029299,-0.24179183713182928,-0.13664289091976983,-0.5455982134652928,0.267033835694735,0.33986221068499334,,,none
1.2931140000000028,-124.10480657589515,-22.31170988319166,129.5363436970916,-3.163534973187458,0.40544683608226684,-3.3259467407328516,-0.48901600576592347,0.3422071988770702,0.257888453400842,,,none
1.3027269999999973,-125.59789498644295,-22.872502269961654,126.556432330362,1.2407644075868218,0.6883006494109126,1.6145012920835602,0.25619588486233963,-0.1521578235202251,-0.35562231109955283,,,none
1.312063000000002,-124.30499715389352,-22.23575775012232,125.61928615920738,0.3489649129634195,-0.016790541596044803,-1.0504650043273251,-0.24193059130242459,0.1219597630635045,0.2761295212352641,,,none
1.3216510000000028,-124.57695367344894,-20.71333851515023,126.86942721576966,-1.3855293077150264,0.5400945073380229,-2.3922605292067103,-0.21907966102712598,-0.21794384385917936,0.5628645956130492,,,none
1.3312910000000002,-126.42664017666539,-20.665359473677448,126.03355277018215,0.517013585299612,-0.42203490808671235,-0.32384600182486856,0.19337185139197127,-0.28762012872353215,0.08241414794400656,,,none
1.340601999999997,-124.93671192100186,-20.909991394754456,124.45263570398834,1.4458671288519191,-0.6869079689236832,-1.4354875663732118,-0.11676863850306551,0.2579560657577097,0.16068205378694658,,,none
1.3501849999999962,-124.20010585598122,-20.367127144709606,124.14672427884618,-0.5319050339575285,-0.3007588381678044,-2.402037370149166,-0.16679204746077525,0.05516598812854375,0.31963484602738707,,,none
1.3598149999999976,-123.75646639750973,-20.3531224889071,122.57860992063792,0.5233750273225685,0.4228362995977605,-0.20080008791827483,-0.0471109754715498,0.06872367350540337,0.06127666776927819,,,none
1.3691919999999982,-120.67203904283367,-20.724001978812986,119.80850962701342,-0.245588059058708,0.4078148162809035,-1.578097531209253,-0.22886987520870883,0.536225747726825,-0.03162189677115317,,,none
1.378627999999999,-118.533342625146,-20.273981128093833,118.43073088938776,0.3950945731615259,0.6992753169950793,-0.8204252170426686,-0.2704547363029122,0.30957997337601617,0.1298165299167834,,,none
1.3881609999999966,-116.30602395581477,-19.105168884625986,118.33528336357772,-0.44734188228322586,0.9148205322922144,-0.6485436805420814,-0.402779008275536,0.26235744003835226,0.3681306167080306,,,none
1.3979190000000017,-113.12935358634388,-18.247442040373716,117.83274404175104,-0.4299680210044044,0.20561843107707925,-1.504280077548713,-0.43080404925471444,0.45491111666998063,0.3223597124607119,,,none
1.4072519999999997,-110.73825924976501,-17.68401969590306,117.55489891517244,-0.8396006369202248,-0.8976183547160258,-1.9215239204627164,-0.3077577245565402,0.35411929119384206,0.3367672361413392,,,none
1.4167580000000015,-111.64825313946619,-17.579939519003464,117.30620995808964,-5.995069475065348,-0.1846530564889809,-8.162450112193346,0.059164072720915506,-0.1645677315342982,0.22121822717898246,,,none
1.4262599999999992,-124.57417567251073,-19.47344155306494,114.33954305319914,0.20742316085131557,2.5193257285377277,-3.762978960372088,1.3717651513270126,-2.0697597661168876,-1.0017737619525016,,,none
1.4358879999999985,-135.67496220218024,-21.158647668335238,111.55744018978038,4.020307898588118,0.36337629866422516,3.0195855731577517,1.091037661101379,-1.8077597532000735,-0.9265426884287068,,,none
1.4452720000000028,-139.49520321887277,-20.652501411624495,110.33362656844554,-1.9518279862970163,2.225946054355727,-7.189999679028641,0.1487679954217625,-0.7061410415663258,-0.1259653658547504,,,none
1.4549030000000016,-145.65902718942968,-20.176937537910092,109.43200374785512,3.21014018531036,1.1488814177021405,1.4847636182761847,0.2865036625085634,-1.1245041185360798,-0.25589345876005637,,,none
1.4642240000000015,-147.8216326320471,-20.671132939944886,107.76860917901587,1.5219825238025553,-0.18528080650225234,-0.2925113419035885,0.21811838994216165,-0.3561698420054282,-0.15574321025696458,,,none
1.4738159999999993,-145.20576611450136,-20.65392604303247,106.32873497229761,1.32389804534643,0.22133288917564276,-2.9066253465664853,-0.14147335138842618,0.4691848746683305,0.16556294021216786,,,none
1.4834249999999969,-143.6717697709252,-20.212123116897782,105.67238201337697,1.2981964990412143,-0.33252226669678187,-0.5423331542415973,-0.16227831360299402,0.25361409506974847,0.16439116708886176,,,none
1.4930379999999985,-139.48568959440752,-20.847344822302734,104.48583287602342,-0.5523880025659132,0.10692188867769385,-1.798581903677541,-0.07740414272516814,0.7913177574230588,0.17335538207230977,,,none
1.5024599999999992,-133.30163724869413,-22.21042239291074,103.4267202558878,0.8622119906831457,-0.2459701341664666,-1.325086889098355,-0.014518039586089713,1.183452501754288,0.21666450714998442,,,none
1.5119509999999963,-128.85136284687897,-22.696611220948007,103.56128078178469,-1.138988923034288,0.3784873506748343,-1.3927053311474629,-0.09774810348048167,0.8234080693995693,0.3613667269912025,,,none
1.5216509999999985,-124.69456411730256,-23.030836734189183,103.50439815679198,-0.5083446272138348,0.5827575178758109,-0.06260229378474749,-0.11232482742780141,0.7615405842179044,0.37491364533457416,,,none
1.5310619999999986,-120.80156505002053,-23.599551251492876,102.56991785039085,-2.9615332618304984,0.9516530722616868,-3.8182089351947432,-0.047248237170483584,0.7232266985881846,0.2270133933640187,,,none
1.5403829999999985,-126.01987567620327,-23.9986359296528,101.56741769006094,-4.979797990517543,2.307132677771684,-6.408565514173922,0.26653403339478665,-0.9214744691971872,-0.33753361488576566,,,none
1.5500059999999962,-135.35308446480977,-24.09591392394665,100.63687564648278,2.889979264431697,-0.42174927430135517,2.932214396574827,0.324226599395433,-1.6753750914303733,-0.6268867894496355,,,none
1.5594120000000018,-138.12834262743587,-23.741315725284643,99.43670665853509,0.24433019833590813,0.9517436137476221,-3.0156744582220774,0.012090109938991499,-0.5127136298483143,-0.17321184794131333,,,none
1.5689240000000026,-142.65917208325166,-23.410304330495435,98.41746717257459,0.7183999604891436,0.2751827209431023,-3.030505343051924,0.054212544234501246,-0.8322728929819039,-0.308665513941084,,,none
1.5785359999999997,-145.9920640239896,-22.859717893893464,97.47740411126836,2.438562965108623,-1.328379747134414,1.5289139903742615,-0.031213883045680842,-0.6226548683461433,-0.19592756396278804,,,none
1.5881059999999962,-144.80685344530067,-22.90271116443869,96.19946761654654,0.004856761393693961,0.9440995748799117,-3.9069587464774824,-0.015606326725791278,0.2182326636604129,0.033995526488896796,,,none
1.5975719999999995,-144.25129643742488,-24.044910589234835,94.49606254725488,1.7809807162051134,-0.8370470212364507,0.04778934920517363,0.2191785114181553,0.12111600383568727,-0.11014798227480105,,,none
1.6071450000000027,-141.93891915267085,-24.511501103646236,93.56034318591469,-0.20236668235013194,0.5418108324515551,-1.6024907995900566,0.06628476610977309,0.42712107439559377,0.1508683664240094,,,none
1.61665,-139.36012878514177,-24.758900388700912,93.09602146386669,-2.468249855874549,2.9044370990853903,-6.436177307303547,0.024446860171493945,0.4712876949502311,0.23174901880879029,,,none
1.6261560000000017,-141.977040056831,-25.389995154498944,92.2449658179109,-1.4693050248243367,1.791071743583487,-3.308959103199635,0.1440294126706197,-0.4694938811957478,-0.1829097892697028,,,none
1.6357700000000008,-142.7262558415722,-25.741228846148818,91.40033745107667,1.8466940397543037,-0.5581438250529899,1.004788893165807,0.07336997240586036,-0.13368947734026418,-0.023401627552152714,,,none
1.6451959999999985,-141.80291320827237,-25.421843282234867,90.99696871549843,0.02088216807929499,1.023406952706687,-3.066277788119988,-0.06612557759989227,0.16589239611623977,0.17839181109958913,,,none
1.654800999999999,-142.1031408875691,-25.19555412509297,90.60642227092079,0.8698139225894757,-0.5815594871672753,0.017164549903564075,-0.04491139560032024,-0.05466585387347376,0.050394037074100714,,,none
1.6642220000000023,-139.37060986411046,-25.136374482105712,89.88378698591562,0.4031342646440242,-0.32320263668376925,-1.4629379037938963,-0.011243738215688052,0.4951690636964463,0.214071799507475,,,none
1.6737199999999959,-136.522760237707,-25.31595276319654,89.17253114777324,-0.2630367919409951,0.05561545506656073,-2.136087196925643,0.04210994902109532,0.5153280226752052,0.18593949169629914,,,none
1.6831529999999972,-134.08369641607376,-25.69099698624354,88.53939757564618,-0.12887692682426077,-0.17890694133039647,-1.0289206910149735,0.08511571724928328,0.43891688244098753,0.1489174321754359,,,none
1.692737000000001,-131.4929821168189,-26.215724530473903,87.86248169827378,-3.3761363521671535,2.2196075712042815,-5.2941623137299105,0.12113031227622238,0.46246351165077537,0.1657762947914515,,,none
1.7022509999999968,-132.60192600270295,-26.936685810329106,86.8998528555793,-0.6716720548176082,0.8727059205188202,-2.107024974890584,0.1334856253103668,-0.20602680351707464,-0.10902751477609021,,,none
1.7118699999999976,-134.02509844660742,-27.44677340805259,86.06656333742468,0.9633248300119275,-0.2019676226767839,0.08174115454549354,0.08394359707944127,-0.2600373285702786,-0.08103698797864058,,,none
1.7212809999999976,-133.8737820841489,-27.770277147673923,85.47916539732033,-0.1447160392819827,0.7171150084996751,-1.8641257898415622,0.06672210240547047,0.021550142388018348,0.0512985429706952,,,none
1.7307089999999974,-134.02994434364373,-27.945884038637573,84.98742401752627,0.8720170397986118,-0.3216284558427782,-0.6787064479426093,0.0,0.0,0.0,,,none
1.7402859999999976,-133.31968253279683,-27.901473165437654,84.41138405793482,-0.16583087149059905,0.16644453857462427,-1.5331740214285436,0.003555128940114095,0.12591154182663505,0.09722112886722584,,,none
1.749797000000001,-132.0234510502193,-28.051213747150534,83.52272905333369,-1.0448938217969286,0.997985261699319,-3.007628135006837,0.055153844639316836,0.22446898304865961,0.07178841442005497,,,none
1.7593019999999981,-132.37241483145905,-28.480792861047718,82.31467862918684,-1.6673470194663909,1.4393330982171333,-3.5513340189387375,0.07729845516990262,-0.07217610778330043,-0.12525158215400942,,,none
1.7687519999999992,-133.37769564639572,-28.706652587670803,81.36936532358408,0.7542652687945536,-0.30049347182098224,-0.9908490305494124,0.018379177088843613,-0.1814888550685648,-0.12035541003976401,,,none
1.7783469999999966,-133.68227279899568,-28.738688658539274,80.70687794314868,0.35565784320628635,0.5714298815311734,-1.667292670655651,-0.002374876831093718,-0.053806953027685095,0.0002745037431680125,,,none
1.7877640000000028,-133.58149335131628,-29.225186494044006,79.6366372851175,0.6434704423754058,-0.005925919930759434,-1.0355892802552267,0.09899363295095036,7.793346215933539e-05,-0.045884613203727574,,,none
1.797342999999998,-132.52712238978748,-29.58499916629104,78.85543059325495,0.17276508595397577,0.29653818005139915,-1.7734460823524096,0.10602517596716345,0.16664107746050202,0.07584348400872025,,,none
1.8068639999999974,-131.99762692698448,-29.61140987869033,78.70078943459099,-1.02304145432115,1.5372485991086569,-2.9807010429907455,0.023477846115907808,0.08929778637009209,0.11151251367949058,,,none
1.8163759999999982,-132.0937210290221,-29.782820068736086,78.30999517475576,-0.37875542707054294,0.6752578477945973,-2.0213457498825256,0.0,0.0,0.0,,,none
1.8258689999999973,-131.91308442060995,-29.862998544065725,77.7508502254793,0.2875648228369205,0.09582446410463434,-1.69129416971798,0.0,0.0,0.0,,,none
1.8353899999999967,-131.83392409264766,-29.723919069048154,77.20582792516393,0.27701516188449465,0.005785665209401041,-1.3825997409956041,0.0,0.0,0.0,,,none
1.844896999999996,-130.97868842650695,-29.73490698772294,76.44536635814276,-0.04654666540033819,0.25794213219954937,-1.7131295088722316,0.036717430199188175,0.14410246015853487,0.0421436193709086,,,none
1.8544160000000005,-129.99862006532194,-29.946081104537612,75.49213581979,-0.6449580989620688,0.7035218430431925,-2.4243394147944133,0.08298841855938087,0.15449983601553519,0.011212555785126184,,,none
1.8639280000000014,-129.78514714543854,-30.09322144833249,74.75801745945532,-0.5972123047186442,0.6429242561686113,-2.2043592436027564,0.0,0.0,0.0,,,none
1.8734419999999972,-129.93137544574523,-30.207966510244685,74.29279719142832,-0.07201844555201177,0.44143931614192716,-1.7042073759936258,0.0,0.0,0.0,,,none
1.8829640000000012,-130.1516016818571,-30.518791154091055,73.6839763132501,0.09800180249812426,0.2616796141751823,-1.4785283916393395,0.04902985026564669,-0.05400236456589744,-0.018352076983658146,,,none
1.8924809999999965,-130.1946849009399,-30.849013397823455,73.09441634906823,0.0008674429100939517,0.3043052350097118,-1.5316920345927654,0.0611014266810842,-0.026335774754384075,-0.0013314320842895304,,,none
1.9019800000000018,-130.26309189406868,-30.991736832729927,72.75162571177668,-0.39739782685576536,0.8042593375305311,-2.021931244616804,0.0,0.0,0.0,,,none
1.9114769999999979,-130.72890424622125,-31.039601589049276,72.44191750839013,-0.42394415199941593,0.807153609241062,-2.053474934534305,-0.015077131677343175,-0.07907593249287968,-0.018062033896038734,,,none
1.9210259999999977,-131.35661031266352,-31.007755623956577,71.95030688196343,-0.05258763132117498,0.3690820953018316,-1.7826918907618055,-0.039490445670678546,-0.10039989147196032,-0.051254703443793896,,,none
1.9305120000000002,-131.9811154508569,-30.85099262667276,71.41609086042972,0.08446865833412569,0.2211963462661897,-1.7115568101560032,-0.06400298846010581,-0.09161041286698655,-0.04651452300593494,,,none
1.9400789999999972,-132.40594398264665,-30.735599056566596,70.83088788705795,-0.018669201524531276,0.3365467604364811,-1.8561488546055915,-0.04581528979983212,-0.06142880550250378,-0.04343425064849992,,,none
1.9495390000000015,-132.66444638163085,-30.77745741082374,70.25270993477021,-0.19900962197763084,0.5313697204575717,-2.1826960733335543,-0.007099673121627534,-0.04469903698437534,-0.047187436802701675,,,none
1.9590340000000026,-133.13511474781038,-30.86713147161372,69.82925655889376,-0.15122488273420925,0.49262234481686495,-2.1149244296174263,-0.011076957605451068,-0.08214840500273918,-0.04092636193332263,,,none
1.9686260000000004,-133.72019435786297,-30.958609276981115,69.52346668155502,0.012652471227438556,0.4351220092196474,-1.8719086016196353,-0.018196896372344337,-0.1005211071618409,-0.0147384155033786,,,none
1.978079000000001,-134.21268037364243,-31.150194950156795,69.35541651856285,0.07842561163050127,0.41327422823728027,-1.7473941896980667,0.00594071959901816,-0.09258045194444109,-0.007456154243266435,,,none
1.9875910000000019,-134.60540161019102,-31.3537762613568,69.20127197630578,0.0021281669991231543,0.4448599860618371,-1.7405488042062591,0.014106248814227753,-0.07733476686126141,-0.0017197644919255005,,,none
