timestamp,roll,pitch,yaw,acc_x,acc_y,acc_z,gyro_x,gyro_y,gyro_z,acc_mag,gyro_mag,markers
0.0,48.146124587601406,1.5716499303683182,-94.31408755044738,-0.08003951952045459,0.03535371631451162,-0.001492992852413306,0.0,0.0,0.0,,,none
0.009513000000000105,48.120631776999375,1.5874067353673855,-94.37762242404116,-0.08779889245921263,0.00696095455805071,-0.008623945060401622,0.0,0.0,0.0,,,none
0.019025000000000958,48.05330150830062,1.5795433335811662,-94.43930127289269,-0.0792839959107278,0.006619073587463091,-0.016768769346492775,0.0,0.0,0.0,,,none
0.028532000000000224,47.96555025787305,1.5467293872335066,-94.49804305085605,-0.0625889487528012,0.005391113330915502,-0.01725672984017794,0.0,0.0,0.0,,,none
0.03805100000000117,47.873619405485606,1.499555560365113,-94.55102628110176,-0.02581564239150421,0.0028083195140949616,-0.028690862836375338,0.0,0.0,0.0,,,none
0.047565000000000524,47.800085017351016,1.4566606037858658,-94.59825826336184,0.0,0.0,0.0,0.0,0.0,0.0,,,none
0.0570769999999996,47.75940361751094,1.4266257422597566,-94.64426164382279,0.0,0.0,0.0,0.0,0.0,0.0,,,none
0.06657200000000074,47.75833358865721,1.4179793761395294,-94.69510968870318,0.0028068681657575606,0.03417631880737711,0.0008488305899129455,0.0,0.0,0.0,,,none
0.07609099999999991,47.79842593352867,1.4327236229103781,-94.75265513724231,0.003405960148209,0.040966439407823324,0.001028144991853983,0.0,0.0,0.0,,,none
0.08560000000000123,47.87133202764186,1.4721958141740674,-94.81357176025436,0.003719172067982435,0.044164975950069844,0.0011390715240369032,0.0,0.0,0.0,,,none
0.09511000000000003,47.96103798392717,1.530030961301664,-94.87674428686091,0.0037027467367175344,0.043397640311801336,0.0011633810943032996,0.0,0.0,0.0,,,none
0.10463500000000003,48.05270969920188,1.6000478783498868,-94.9406620549539,0.0035618423985794095,0.041203477911720396,0.001155244202985218,0.0,0.0,0.0,,,none
0.11413700000000127,48.12634558821037,1.6710413678375167,-95.0029453630097,-0.0400537340090946,0.03804278064436463,0.00454230102924117,0.0,0.0,0.0,,,none
0.12363999999999997,48.16755682934843,1.7371321511770725,-95.06279076263257,-0.057729216136800494,0.03175829139397646,0.00032869817026366915,0.0,0.0,0.0,,,none
0.1331490000000013,48.17039382367417,1.7912184576468761,-95.12132805382447,-0.06825223745687198,0.006383933098459091,-0.008502827750465283,0.0,0.0,0.0,,,none
0.14266000000000112,48.12972479938221,1.8214431384123226,-95.18272474345224,-0.07389798294024849,0.006884057869223184,-0.005677147585521964,0.0,0.0,0.0,,,none
0.15218100000000057,48.05431710820256,1.8304934121215926,-95.2437697978961,-0.06742255009566069,0.006369007528595011,-0.005644122944608912,0.0,0.0,0.0,,,none
0.16168200000000077,47.965835178791124,1.8220568409841982,-95.30303401605995,-0.04951411792769868,0.004690710050183598,-0.002966652405034826,0.0,0.0,0.0,,,none
0.17119600000000013,47.87413436557612,1.8009940422879005,-95.36291331985346,-0.022104116192768364,0.0014428987563750496,0.020015301541659515,0.0,0.0,0.0,,,none
0.18071199999999976,47.798391141413035,1.7778195483330488,-95.42550883906151,0.0,0.0,0.0,0.0,0.0,0.0,,,none
0.19021099999999969,47.75842866866533,1.7652337223398995,-95.49049656778685,0.0025143929716226116,0.026158446657324794,0.000809890058434749,0.0,0.0,0.0,,,none
0.19973099999999988,47.755295965345894,1.7763966832056235,-95.55475151924006,0.02454840283972825,0.036334329593136046,0.0242374288665605,0.0,0.0,0.0,,,none
0.2092330000000011,47.7974135632722,1.8172281380971798,-95.61658550462204,0.02692422899059932,0.04509486917249024,0.026200995901399435,0.0,0.0,0.0,,,none
0.21874200000000066,47.875064145433335,1.881547588940922,-95.67946172256332,0.02523101329325061,0.047091270669165936,0.024242825965867583,0.0,0.0,0.0,,,none
0.22824699999999964,47.965802560783494,1.954857807202469,-95.7428381508845,-0.016491497692426655,0.041510358703987706,0.01990089761633219,0.0,0.0,0.0,,,none
0.23777300000000068,48.05410142050045,2.0248972728021597,-95.80250446387144,-0.027499033423200564,0.027858469791134877,0.02801636585304191,0.0,0.0,0.0,,,none
0.24727500000000013,48.12071379702923,2.0737688797716887,-95.85729657632882,-0.03443260454946968,0.002407170924089852,0.03091096299372847,0.0,0.0,0.0,,,none
0.2567970000000006,48.159632527152795,2.086912987496727,-95.90970980845643,-0.0551322081767112,0.005441134826351981,0.00725188262591594,0.0,0.0,0.0,,,none
0.26630100000000034,48.16826779607864,2.06697881934054,-95.96095532691601,-0.06124211497816809,0.006269613486324077,0.0034447228752521146,0.0,0.0,0.0,,,none
0.2758160000000007,48.14752385974566,2.0271776379984985,-96.01058894710334,-0.060069528353926836,0.006274456102656598,0.001414111965046758,0.0,0.0,0.0,,,none
0.2853159999999999,48.09834685056513,1.9879843877163266,-96.06318961838839,-0.05787317668115606,0.00586529611331443,0.008077646271916893,0.0,0.0,0.0,,,none
0.29481999999999964,48.03387897604048,1.9639583485185297,-96.12549488557488,-0.03223189498296955,0.0024575571906582587,0.029040506008037457,0.0,0.0,0.0,,,none
0.30433800000000133,47.966339604835845,1.9604309115867167,-96.20281195392212,-0.02547746317499087,0.0398204358095419,0.027987724377179442,0.0,0.0,0.0,,,none
0.31385299999999994,47.9103076690033,1.9801209175172823,-96.2904545676043,-0.019796285329935333,0.05104118323495704,0.024517279434738193,0.0,0.0,0.0,,,none
0.3233650000000008,47.87634636108583,2.025654345300113,-96.37908103852146,0.00623501118758583,0.05577018443838673,0.0019848288220806064,0.0,0.0,0.0,,,none
0.33287900000000015,47.8697464027114,2.0795803931955787,-96.45988307110726,0.005494413392511234,0.04852590245717906,0.0017733058655289176,0.0,0.0,0.0,,,none
0.3423790000000011,47.89355424518002,2.1272290758730383,-96.52491232179884,0.0038201760691828285,0.03340013214511445,0.0012487103176332718,0.0,0.0,0.0,,,none
0.3518840000000001,47.94384318815423,2.1513609080071086,-96.57053213175075,0.0,0.0,0.0,0.0,0.0,0.0,,,none
0.3613920000000004,48.00984385133654,2.146019492765663,-96.59850261864295,0.0,0.0,0.0,0.0,0.0,0.0,,,none
0.37091400000000085,48.087441614695905,2.117640142727591,-96.61869415569011,0.0,0.0,0.0,0.0,0.0,0.0,,,none
0.38041700000000134,48.169760955109695,2.0817587305405745,-96.641348294134,0.0,0.0,0.0,0.0,0.0,0.0,,,none
0.3899340000000002,48.24737008408571,2.0641800256678993,-96.67745297733059,-0.01710913828628545,0.002706210564659139,-0.019377328759680547,0.0,0.0,0.0,,,none
0.39944500000000005,48.302808617107054,2.082229777560394,-96.73530235463943,-0.01645893023398485,0.03102287830695018,-0.021396388625680413,0.0,0.0,0.0,,,none
0.4089590000000012,48.332280390978234,2.137574880118438,-96.81705670039244,-0.019515298630757242,0.04367538499989011,-0.026085621023701856,0.0,0.0,0.0,,,none
0.41847800000000035,48.337537663869554,2.226273159411893,-96.91100552088082,-0.02274389012197126,0.04890260293542912,-0.030231564693850174,0.0,0.0,0.0,,,none
0.4279640000000011,48.33915066749453,2.3344502637875975,-97.00279190876743,-0.029384894034980295,0.04723824802569481,-0.03752006375491496,0.0,0.0,0.0,,,none
0.4374900000000004,48.34218702010034,2.438135243854584,-97.07838828781952,-0.03450216025938993,0.03702036670096872,-0.04227029507149293,0.0,0.0,0.0,,,none
0.446987,48.340075155810474,2.532384778383217,-97.12108327718926,-0.04317170653032604,0.007584458656415574,-0.049157574003716065,0.0,0.0,0.0,,,none
0.4564990000000009,48.385384048208444,2.6228880785057442,-97.12205747945318,-0.008076562109670605,0.005167853541090239,-0.09008111936072892,0.0,0.0,0.0,,,none
0.4659570000000013,48.47661021254627,2.7205569541175776,-97.09212866558417,0.02123205350539351,0.003546845962306399,-0.12923684729609844,0.0,0.0,0.0,,,none
0.4754550000000002,48.61150533213827,2.848371976461374,-97.0549390039065,0.0382861056965776,0.004113848372942915,-0.1765678704174337,0.0,0.0,0.0,,,none
0.484947,48.81316355472677,3.0310176424519835,-97.02843687574781,0.05018562974091702,0.006324466316631026,-0.23451562302526557,0.031350241781975506,-0.04450058988425749,0.003235696918429412,,,none
0.49446499999999993,49.13015441845767,3.3228949606166474,-97.00011166859122,0.10747381235367882,0.010838214393186503,-0.41087087713587034,0.05026418751046046,-0.0700308168046021,0.0021542823931262065,,,none
0.5039600000000011,49.62343002620308,3.781750139494528,-96.92190075594559,-0.056154597139895984,-0.005687387009454524,-0.3571796197211826,0.07924625521107705,-0.10898052638524697,0.0095401735163136,,,none
0.5134819999999998,50.1948394044936,4.364158550336217,-96.84050405352781,0.18798928334902745,0.0371956221557732,-0.7773078631534881,0.10209526023037915,-0.1272655428279839,0.008171235630466664,,,none
0.5229800000000004,50.96310704952485,4.918544598488892,-96.90190197789046,-0.1490575038346931,0.06832874247938049,-0.5801014240523639,0.09185694183447479,-0.1654955166574564,-0.024740774248437656,,,none
0.5324939999999998,51.65842807999846,5.453532088758593,-97.10868013803595,0.06028230400326862,0.08042805559744877,-0.9141022359570055,0.0894043372196398,-0.1506753696340726,-0.053984531635801254,,,none
0.5418280000000006,52.35927996634835,6.085014385096266,-97.27936756193894,-0.0858466234559469,0.04495167786749267,-1.0124043369483462,0.10795361230987567,-0.1543466490340463,-0.04828075130566716,,,none
0.5514159999999997,53.19501561229754,6.832783678745509,-97.309437574124,-0.07819470566170661,0.049408417781625705,-1.0819178837828576,0.12739154098325292,-0.18393170354844068,-0.024846230141988467,,,none
0.5610350000000004,54.004423028880744,7.537017496471796,-97.36613062132835,-0.14898180451915738,0.019001150691860567,-0.9124991639727492,0.1193088494199811,-0.17747706588026546,-0.031619357435721016,,,none
0.5703550000000011,54.316310282662755,8.147459630634074,-97.52367389470352,-0.2008322688730917,-0.04383703855046312,-1.0757648345791428,0.11317547052276035,-0.07717686819777819,-0.04006339681285719,,,none
0.5799490000000009,54.52369879872103,8.73358447894816,-97.62499326949143,-0.15402301048147765,-0.05778914469926116,-1.1577913311653056,0.11091395319281012,-0.056182516076678346,-0.026380118969505012,,,none
0.5893759999999997,54.586120023768245,9.32339209223635,-97.65973502165942,-0.23209097362215564,-0.002325696439558725,-0.9752611674481135,0.11539993354859261,-0.02793815080581695,-0.008918974668933934,,,none
0.598968000000001,54.257062641131625,9.863862015240802,-97.78548859717813,-0.08010568252942593,0.05470196959983369,-1.1139873855424234,0.11595878670006607,0.04983139509150805,-0.014198210084745212,,,none
0.6083970000000001,53.79319614325596,10.37243118054982,-98.0092962441769,-0.15587218506655315,0.06101997627116279,-0.985156356100245,0.11342012027956407,0.07657266918236307,-0.02849318178422849,,,none
0.6179120000000005,53.180184660860625,10.971255935744768,-98.19334603971937,-0.07879856329825026,0.06457062532740503,-0.9512409428046283,0.1356953695881124,0.10251441728667895,-0.014120335157120327,,,none
0.627600000000001,52.46316074518881,11.664198728192074,-98.32729795739444,-0.01737222787911336,0.08158586624862642,-0.9504208462632898,0.15752309697911537,0.11937587946229276,0.0013521027465143072,,,none
0.637105,51.77132728781013,12.346486032730468,-98.505377367915,0.046734350512598305,0.03739454821504818,-0.9278186366745984,0.15496375595677242,0.11403556793060902,-0.006841704412184548,,,none
0.6466200000000004,51.090787639739816,12.992681378482041,-98.71074503596147,0.0067060757817694015,-0.04092175257243421,-0.8855354741245547,0.14781880510795045,0.11207706801038517,-0.011234169049748768,,,none
0.6559629999999999,50.48081086640067,13.644337577372033,-98.83972758423181,0.05379912988235326,-0.07337069296218947,-0.9557206952923198,0.14707558575511717,0.09754803021573155,0.0023107405653219324,,,none
0.6654650000000011,50.03565849826146,14.263140806007906,-98.91688648121715,0.06644309059045518,-0.06028205532635019,-0.9617396704943203,0.13576006196357307,0.06633987659167792,0.00604365631020303,,,none
0.6751550000000002,49.71228067198372,14.790272537550196,-99.04412138319937,0.06097632037612342,-0.04701273654079863,-0.943622134102611,0.1140306966596264,0.045432881683206854,-0.00923401213221668,,,none
0.6846639999999997,49.44962907120894,15.275478437309063,-99.2203859715589,0.01798670403631575,-0.02701815574163425,-0.9342122549953713,0.10397633883162921,0.03472573016669182,-0.02165199127379479,,,none
0.6941699999999997,49.25398958498962,15.818482681954501,-99.37929939724707,-0.0015007147145284251,0.01983446502928237,-0.9384245601119559,0.11338791206957326,0.019673209594020982,-0.021317447307673904,,,none
0.7036829999999998,49.07070621980121,16.42394876997759,-99.550494159337,-0.012323637134483364,0.0665459703062959,-0.9481751578518023,0.12537133558869715,0.014839665466704254,-0.02408592742011285,,,none
0.713019000000001,48.834921941932976,17.04629787444368,-99.78926947397466,-0.047988150950271896,0.06739743353427996,-0.9694348727844522,0.13042826431283833,0.02363631342592216,-0.03421413034221349,,,none
0.7225200000000012,48.5433239776524,17.69109653434678,-100.04608028540493,-0.08754994388600987,0.030876052422067726,-0.9751792254161593,0.1367673416126003,0.032654138834228894,-0.033988719265907644,,,none
0.7320360000000008,48.17776936419335,18.369019164810886,-100.25105482745445,-0.09737241710657557,0.007084844098784684,-0.9943687272472994,0.14587124089798106,0.04459234449568193,-0.0183871479226761,,,none
0.7415409999999998,47.74009433924007,19.018036475547294,-100.42901140162286,-0.06807694258838452,-0.005706144509529341,-1.0153641577146613,0.1427330493788715,0.058335616301985034,-0.0075457128198701895,,,none
0.7510600000000007,47.23059369119462,19.581923298035882,-100.62764203783733,-0.06453693101777055,-0.025288248056914903,-0.9927789458559191,0.12859044456101842,0.07402764518715889,-0.006051660272152327,,,none
0.7605660000000007,46.67828287525255,20.096213276511243,-100.82369982227188,-0.04082350426542381,-0.03181298873963931,-0.9724756719098155,0.12052913753411133,0.08303860316366735,-0.0017248990670365254,,,none
0.7702609999999996,46.125103842735015,20.61748792134508,-100.99834719406135,-0.008430060374226849,-0.00706057832003473,-0.9364281522473809,0.12213593828552488,0.08220709687835362,0.003560198375745829,,,none
0.7892830000000011,45.05237844014742,21.697774170758443,-101.46050934172679,0.03341818263290283,0.026308312371410732,-0.8986812204833957,0.12644643255361954,0.07441930029054197,-0.014004223150995131,,,none
0.7990050000000011,44.5675619696667,22.290707804666503,-101.74579003653429,0.023602507062405742,0.012925285475898444,-0.9010768210738259,0.13439236238006239,0.0642874741563595,-0.02076484579612501,,,none
0.8083580000000001,44.1335929715709,22.935359920484306,-102.01775990900667,0.010499055135221725,0.00441430055088408,-0.9202054327132487,0.14281817147991607,0.05191551268545369,-0.021042285630495768,,,none
0.8273930000000007,43.356101407453544,24.161301671948486,-102.55938804989711,-0.043594724741800796,-0.029181461673139692,-0.9559207535880444,0.12973663327041346,0.04287835498639828,-0.02370059932534532,,,none
0.8368800000000007,42.82275231757831,24.540253147139115,-102.8393856337163,-0.5254783287853062,0.11324672391276781,2.067052341772693,0.09540337239908472,0.07822658202924719,-0.01203199596256729,,,none
0.8464010000000002,39.09358508788077,19.81978385772152,-100.18936392739093,0.05802730316794612,-3.004160163294425,9.212667821734149,-0.7878677284392848,0.8664278693478183,0.8120784385143073,,,none
0.8749289999999998,15.17358307083839,22.408391034007078,-93.34423950402964,-0.41807364870168595,-0.1762418709579454,3.4370052220217078,0.8640593349122927,1.3437727391751533,0.14458631894123777,,,none
0.884348000000001,10.308137534787297,24.026100228518022,-100.51145831154868,4.057055435460612,3.3466332241232037,-6.150668062543071,0.42945353289708793,0.8499618350085907,-1.0501308369462168,,,none
0.8940970000000004,0.41275888515672915,21.125254292653885,-109.89496994071325,0.7257134826712749,-4.472552141391396,4.834935999206329,-0.07929579632399456,1.917912489528619,-1.1136585459732815,,,none
0.9127840000000003,-4.184249872976546,20.5502637592413,-120.27323551029743,1.1373853599039976,-2.964728659648208,0.1909875158375509,-0.2133018472346543,-0.30438656796274033,-0.7517748353026379,,,none
0.922448000000001,-7.531170615970641,19.804614680116394,-119.09157480864882,-1.2504309125251847,-0.3626174809258205,-0.5123591013279004,0.18181583794678627,0.6203996129945936,0.46766713626530215,,,none
0.9319030000000001,-4.391124784603981,18.997656093890264,-113.86952529490222,-0.8988306532131142,0.274227933443743,-5.5762456577611665,-0.4090800213376802,-0.4588538094700905,0.8364457027976387,,,none
0.941497,1.205901850880025,19.57686675204961,-107.42049353206785,1.8580131086832818,-1.7221642310970635,5.055059758372546,-0.26455550192808364,-1.030894262006202,0.9201225256877624,,,none
0.9509129999999999,1.07246708878202,19.487803580910846,-102.70633354686701,0.14165660413757947,2.4328234243671014,-4.844684563305626,-0.010678041249207139,0.028958392501607248,0.9527829788412305,,,none
0.9605270000000008,3.523980811538099,18.039066288407053,-101.07066438754372,0.7821005932178936,1.036175922803009,0.9170879812927107,-0.3795435696341522,-0.3950490203417018,0.16953778376512735,,,none
0.9700420000000012,3.2518538161323476,16.740376486076265,-103.383675828164,0.8125036805594615,-0.19280928434634567,0.31221654217541256,-0.2431260577454802,0.10589109038242828,-0.4467978171085663,,,none
0.9794689999999999,0.09863206685554514,17.06364433974285,-108.57610327651237,-0.40645270820724827,0.66979519315925,-1.8117542519884378,0.22855533099127384,0.5630277296106171,-0.8558117821597325,,,none
0.989078000000001,-2.252248998835844,16.879767299734823,-114.68517075996591,-0.5347753368250783,-0.4423114408613964,-0.3747889122445662,0.13177915432837584,0.4322124638676444,-1.0855780710311254,,,none
0.9983500000000003,-5.57717233804268,15.167797564311092,-119.62547063170186,-1.0173715732783497,-0.3028944061745937,-1.557835944470829,-0.012863192522411847,0.7258735147573132,-0.8050275342384487,,,none
1.0078960000000006,-8.926103939997294,13.082226645176457,-121.67498109618836,-1.8877054990004587,-0.6608613033220615,-0.4058516812439329,-0.027620833792770645,0.772254964764748,-0.24654788161745728,,,none
1.0174120000000002,-11.196154405660735,12.226511920574998,-120.44238663109957,-0.7831332394597111,-0.5127326038807937,-0.8975995354433538,0.0820467493189243,0.46829018053549604,0.3463168267544427,,,none
1.027101,-14.181385433608611,12.101185672828592,-116.82555328699814,0.03866925411732147,-0.28131157617080854,-0.27948739420347796,0.25803124768205016,0.5249615769655371,0.8499304521165075,,,none
1.036518000000001,-16.915565133614024,12.216794696091654,-112.34844266470962,0.32116227346116455,0.3901229062756774,-1.3106801677972255,0.2437839115749857,0.4771557155122779,1.0115283356147644,,,none
1.045935,-19.22450317837599,12.749117325614021,-108.97081754869255,1.5140717498567267,0.15042085776432026,-0.303572639840309,0.2590090374768137,0.3848140630374204,0.7760871821021658,,,none
1.0554490000000012,-22.671301803237558,13.440679909785278,-108.2032684930754,0.9858255517112587,0.8594567763363983,-1.3716226248777905,0.3454601110434204,0.5930024112568446,0.3099859299467652,,,none
1.0649610000000003,-25.812262231738124,12.88058327106965,-109.89496741279541,0.771940101618457,0.7465961285204253,-1.5147898520799095,0.09388917849408919,0.6154226196925418,-0.19543746262208925,,,none
1.074466000000001,-28.676000273307057,10.541081705600453,-113.05822816458318,0.7698657885816854,-0.2018536140096608,-1.2462152391546513,-0.23024556925233677,0.6940042942505601,-0.5167355710746593,,,none
1.0842050000000008,-31.613540113523374,7.483879949941141,-116.62626093704898,-0.2741011244806052,-0.5126158718881636,-1.387317888629647,-0.3113085655944591,0.7843935881792579,-0.6219116360069551,,,none
1.093515,-33.490062473598684,4.881262840289375,-119.39400022690343,-0.596340111931098,-0.6200525743104855,-1.0394883740910463,-0.28459893956566285,0.5745463472425022,-0.5135360167090822,,,none
1.1030090000000001,-34.82681412496467,3.122022975077634,-120.29646591560163,-0.6314169507160604,-0.4709348910178244,-0.8811890032703431,-0.17262860340097855,0.40687389892328324,-0.1619886068175943,,,none
1.1125380000000007,-36.099448786039375,2.423039223854512,-119.10519466103325,-0.5827826358771612,-0.2780967511492093,-0.6671531158049777,0.004542259043875583,0.2904159144249263,0.2508224209483323,,,none
1.1222030000000007,-36.96298551884205,3.0497808024220845,-116.65907355643023,-0.07784027533121039,-0.05428184261799682,-0.8098232985050603,0.19169255156485637,0.09397713164387413,0.49799287032714257,,,none
1.131533000000001,-37.95184784629424,4.449927463772051,-114.09226741257754,0.6623027827701125,0.2236967965713573,-0.7832814809032789,0.3379760193389649,0.05837815177724843,0.5268272477223365,,,none
1.1410540000000005,-39.46462037741033,5.492750511311039,-112.24256021058034,0.36763960046487104,0.720218867268184,-1.1943803883154225,0.31067146497610876,0.19528855768533154,0.3965557224587018,,,none
1.1505600000000005,-40.927344338058376,5.401202514211305,-111.63367113859759,0.5928017509353601,0.47132084196336926,-1.0163916619535576,0.09192039206437067,0.2772800812158559,0.14970287766364462,,,none
1.1600570000000001,-42.815630900528085,4.132658341762688,-112.55057430333821,0.41900507077230825,0.14279465338242375,-1.0606748125594136,-0.09361489385531739,0.4446233859554672,-0.1521368724855383,,,none
1.1696609999999996,-45.047626660622846,1.8736931071798866,-114.4488274371724,-0.056791401955698845,-0.07436485941089784,-1.0628674797872786,-0.23676983960593911,0.5896312415491441,-0.35655087045869427,,,none
1.1790870000000009,-47.16420873323519,-1.0230044386823594,-116.22620734797516,-0.2606641284136108,-0.30122116755843337,-0.9490754950631282,-0.34276143745822024,0.6312350725707793,-0.35259930854094057,,,none
1.1885890000000003,-49.349675686833315,-3.809001949485817,-117.08533172601639,-0.3887439172900195,-0.42522922729875584,-0.7061748437165447,-0.3023137557440285,0.6409787914896308,-0.19040543759254028,,,none
1.1984380000000012,-51.570584665745564,-5.539204624576757,-116.89520130493361,-0.3080141186484257,-0.3568455296253222,-0.5818444350402683,-0.10750671939802076,0.5521288630899027,0.001820610375455736,,,none
1.2078070000000007,-53.83853207221989,-5.814144842584133,-115.8515427145901,-0.023491959991786496,-0.14574227390204608,-0.7363350862181985,0.15141077094535915,0.42928128377620856,0.16401315457267907,,,none
1.2171140000000005,-56.21047532606216,-4.987845646345594,-114.27338936640759,0.1762378279889834,0.13350035695019333,-0.9756618818592696,0.35012917616316425,0.3582222599076235,0.27122034929933536,,,none
1.2266390000000005,-58.42581554236137,-3.7554895413394958,-112.70355590645792,0.3734063024419402,0.26956773762037894,-1.2034661271686091,0.4025473918156287,0.30729931680698347,0.28044707351445575,,,none
1.245743000000001,-62.40236011459426,-2.9217897033170277,-111.588166927685,0.25723576965742034,0.30541684594306906,-1.3888069124139308,0.12762475483729827,0.3591950718935135,0.014742578792122823,,,none
1.255256000000001,-64.18541214681494,-4.285252537110723,-111.84854110715912,0.1546033811297628,0.07006461885261028,-1.3104701333092372,-0.12174391650076179,0.4320191005277821,-0.0745642426734063,,,none
1.274268000000001,-67.71124196321809,-9.306382151618086,-112.34897771249167,-0.1483317101715989,-0.31801743634745605,-0.8501781032115058,-0.36050913653887556,0.5173469490970111,-0.08340581488296031,,,none
1.2839609999999997,-69.47602167106179,-11.48194048466874,-112.15809102584775,-0.16087405308786998,-0.23731277158374406,-0.6977736577287516,-0.27148759616102014,0.4866199115488066,-0.02554556605858334,,,none
1.2936189999999996,-71.40801275773586,-12.705476456379458,-111.42691241211539,-0.06979543480711477,-0.12229079989274683,-0.6180064633146103,-0.0870264673710554,0.44214614067311,0.06532695765577065,,,none
1.3029729999999997,-73.47913039010021,-12.80953225577673,-110.35007729286993,0.110458411503703,0.00017725666536392852,-0.7136774008170133,0.12473869894539906,0.38528421398896645,0.12400586767319334,,,none
1.3217600000000012,-77.86284427075962,-11.011963989419206,-108.63024561333887,1.033386193567285,0.020829457675534145,-0.8397413584220748,0.3355192647995383,0.34238471690928257,0.05582985818854037,,,none
1.3315099999999997,-74.6303089481571,-10.17682656871916,-107.89060511029055,-0.8367241232709148,0.6471971621285421,5.894647635383633,-0.040592865360930964,-0.6565362226333504,0.26704347050763816,,,none
1.3504210000000008,-32.93913036342469,-8.659230721249086,-106.25121641698276,7.73893598329607,-5.134649642883459,1.2239318699276251,-1.1631222976616362,-4.136472626009962,0.7802392293473551,,,none
1.360106,-12.737332626862395,-11.820297395174364,-104.41995387384205,-0.4610638854796222,-1.2187482114141714,7.044449940132683,-1.6571993885668574,-3.6742202016673535,1.0819845584572243,,,none
1.3693280000000012,7.562060643016149,-17.356036314292872,-102.33799697515926,0.5841909894101202,-2.5908794898195735,-3.0894683334086968,-1.9780890310190973,-3.5753998251442733,1.4364939546934126,,,none
1.3791270000000004,28.746060279222846,-22.479402310213025,-101.10709077573637,2.4970995355795513,5.249198305956561,6.373793539039237,-1.803827966231286,-3.7007032657152132,1.689200295454597,,,none
1.3884530000000002,45.05939299396123,-25.66506267635732,-103.22402458467671,-0.9834275015743527,4.993204834592609,-1.3623296003188665,-1.2474460028851775,-2.781221866333566,0.911077378043361,,,none
1.398059,62.351937413775055,-26.577729149064794,-108.06184070333298,-0.20344341796795745,0.7717049637879054,-3.4296165485289434,-1.0122134065177633,-2.942746701644491,0.5617075304107719,,,none
1.4075190000000006,81.49381565056389,-24.113813122311846,-109.32022336122206,-4.84184278574683,4.16771542056994,1.0885032672790578,-0.6469464676381256,-3.436979309197108,1.3907600273263525,,,none
1.416863000000001,89.49977198381971,-19.816197238742376,-106.02912683918221,-3.1183398831882583,-0.18412723743182025,-2.0028306278042844,0.36721124042025977,-1.6782052122484674,1.2573948827558374,,,none
1.4265990000000013,94.19285246768098,-16.531523625767978,-102.6883446302795,0.3678215921845273,-2.9978773728070025,-3.5437780537064882,0.4154395840319721,-1.028265040252493,0.9614669749360543,,,none
1.4358500000000003,101.12500134612823,-15.831753291819691,-102.23053468573687,-1.057090462172266,-3.382924195281961,-1.0722320947336754,-0.15094500030609945,-1.33178501714806,0.47835086914468034,,,none
1.455012,107.02162592875969,-23.01480275350876,-107.9210653261246,0.631430273905307,-1.9720888003582544,-1.3246403820822752,-1.0950167065856184,-0.22829285109163247,-0.5610178152857717,,,none
1.4643740000000012,110.46031494395655,-28.789238436337026,-113.19748969404002,-1.942655337842792,1.647601471946079,-1.357248169565935,-1.2999729763544616,-0.1742468286918155,-0.7543890796967486,,,none
1.4738900000000008,110.68762660401224,-33.33904338514698,-118.07644485276505,0.3374726637566743,2.0781880201619463,-1.8093609185009139,-0.8383919162844089,0.359096379527386,-0.9528344425656831,,,none
1.4834069999999997,110.58920708906415,-35.87898146635774,-120.34346738916693,1.9538164753982146,1.9041047860716238,-1.6126356247744695,-0.43599278692087823,0.2623540929295446,-0.4650092046924598,,,none
1.4929140000000007,110.49211216849227,-35.898235767934274,-119.6761029392643,1.9040273931848946,2.256860005672406,-0.3985030442795887,0.004540013483919156,0.015565727665173668,0.12222163757679814,,,none
1.5027819999999998,104.20173121894177,-33.36410127441237,-117.01441942580067,1.244914336919004,1.297693340262642,3.455231717547265,0.9380135691907889,0.6713604478838414,-0.18332672361602456,,,none
1.5122929999999997,86.66844680730517,-29.523854142085458,-111.41887308622867,-2.2466760390616156,-2.425123112349114,2.4184520091001414,1.9227287220459426,2.4167772859419077,-0.7180905432546054,,,none
1.5214990000000004,78.25174396796936,-26.680087854601094,-108.68142778537674,3.0648256659726285,-3.3559452564527126,0.33079024413406466,1.0434068057482189,1.2014773466813273,-0.24666881858013964,,,none
1.5313410000000012,75.83036360523674,-25.745558920821956,-112.29134623634131,1.4958577838503646,-2.6795346048438997,1.4155500926587408,0.3275575959067649,0.3420605185917665,-0.936802406289399,,,none
1.5406950000000013,75.5778120064593,-26.645668007229997,-116.22960968353443,-1.862939296691298,-1.3010055983381892,0.49561174342858083,-0.14569477447283422,0.11544346419985019,-0.8108061165541807,,,none
1.5502130000000012,77.90830762363763,-29.636646051845652,-117.1809622354557,1.6003885396651716,0.21382284748699992,0.1480845277115184,-0.719812970543563,-0.09850995080047616,0.029688219395306994,,,none
1.5595410000000012,77.61573356268191,-34.110544355925406,-117.07584558061787,0.7527834665437478,2.2713441350795893,-1.2213521809859722,-0.7745213926848878,0.4527368720836096,-0.009900005453252498,,,none
1.5690570000000008,78.62112952663601,-39.12381237443663,-116.72001079089797,4.788050940472743,0.20924748855790176,-1.877741161794656,-0.9682603348950506,0.3099537667673312,0.19130719271951038,,,none
1.5787460000000006,76.24509562154684,-42.5417301841158,-114.31319859342618,-0.3018436375848684,3.2687221127100803,0.9803488375564178,-0.46240714545136363,0.619613535873739,0.17060356282379746,,,none
1.5880729999999996,69.74738599380055,-42.692859276693845,-107.9819521702226,1.454142101065177,-0.9054934690063684,-1.6074648961083444,0.31714017048081816,0.9036011078594629,0.3860059473214575,,,none
1.5975780000000004,71.46014526695625,-41.5060449606064,-104.50940650071085,2.203036548356036,-0.6172122902822631,0.2916444901466815,0.15697929901220917,-0.31084493826193776,0.9251112823993624,,,none
1.6072680000000013,75.46451026063677,-40.316007200746874,-106.98653165549942,-1.4328863576507982,-0.5863461984426391,1.2387816051389946,0.0647775081259079,-0.6477460784514069,0.02923181696175451,,,none
1.6165990000000008,79.12294982430288,-39.22609028783156,-110.02372993648316,1.0001169277871849,-3.599336845945881,0.2812708596564806,0.02817439203869107,-0.6030833469107516,-0.1393644365179771,,,none
1.6263009999999998,81.9809853020362,-38.675780677453,-110.00357368614677,0.6195663223110363,-0.6545360178915528,0.6095343121073531,-0.048796703410759985,-0.4558422859574938,0.36376879633251874,,,none
1.6358139999999999,80.2910189550937,-39.42022795627541,-109.8835735286805,-0.8761684381620412,-0.09563573940715635,-0.11361594721921407,-0.050469903345844815,0.29785588560926163,-0.18913275936983817,,,none
1.645137,79.95420925911317,-41.96923862661983,-111.05401131887382,1.7585281860807378,-1.558591189284891,-1.8695586299608606,-0.46026836576937874,0.22638490466403313,-0.2782707270140277,,,none
1.6546400000000006,82.74280287569111,-45.65986382199522,-112.30533311809894,-1.1301545137424833,2.0187467219872968,-0.2913549434976444,-0.8353512965240448,-0.10151593407914543,0.136190841510655,,,none
1.6642419999999998,81.47555890072253,-48.94848104699815,-111.3133215358855,0.7568422776928152,0.66392114822167,-1.6082389164873478,-0.5473588474248641,0.40436775482850074,0.012058669332621692,,,none
1.6736640000000005,80.63712183107664,-51.2879881766883,-108.95331481168284,2.0977270466042324,0.33686697872678345,-1.9612536170232118,-0.402745585048287,0.262299485522559,0.34361691569448527,,,none
1.6833229999999997,80.84081207099281,-52.30237610715925,-107.87372327409783,0.792411965658407,1.1192406422929262,-0.3653504111980925,-0.2006747861424499,0.04022006075908478,0.2481940421441306,,,none
1.6928710000000002,78.24183340342219,-51.758704406833736,-106.72692618376335,0.07420104457452151,-0.6222875072028043,0.16199307775823732,0.19911068825935826,0.27328372847323634,-0.1806323554478199,,,none
1.7023770000000003,76.56579136875759,-50.340050203626845,-104.73972064681844,0.5850494993071835,-1.3038035352127348,0.6009618943801469,0.3305838774562439,0.12603613915562922,0.13685989589864683,,,none
1.711889000000001,76.98527777755896,-49.252445634015764,-104.81584655809183,0.9997665582058957,-1.1832892390404426,0.5815982146456833,0.19672555313666304,-0.10796785935693295,0.04890449187801884,,,none
1.721387,78.59786990542675,-49.39431409083351,-107.73864755079386,0.9218043720592586,-1.7371195365068175,0.6489781323323821,-0.08625385410491819,-0.19404303169149043,-0.3403108839636919,,,none
1.730906000000001,79.51998050278841,-50.60030145921276,-109.56169054468026,-0.20046503811963926,-0.573421110313005,0.531062740806772,-0.2667357913365815,-0.0352306070986767,-0.22355824661808818,,,none
1.7403760000000013,78.70191785429397,-52.71350724298994,-109.17294675844015,0.40588401621128656,-0.0306968422252778,-0.26674398770745994,-0.36545543962795907,0.23617335550093937,-0.05064435793518193,,,none
1.7497450000000008,78.4378572345294,-55.59925881643751,-109.06235977649375,1.419887450855419,0.2276346745739684,-1.2135347700132608,-0.5357780442652033,0.21848603836793173,-0.020721719853880875,,,none
1.7592610000000004,79.82217252864032,-58.61778480659911,-110.42431317658937,0.9471015578134624,0.8115498443724891,-1.1527741008639711,-0.6196585858775904,0.06247237911064656,-0.03985352341794334,,,none
1.7687869999999997,80.1125419062416,-60.66769608931419,-110.46620648850428,0.7027442020342114,0.779458719044026,-1.028710532634497,-0.39484627483096274,0.11583871188792616,0.04178379436510079,,,none
1.7783010000000008,78.37661827186162,-61.24487490969345,-107.8139401530935,0.8039302265568081,0.3911136976058026,-0.8675148038546739,-0.05384243923163068,0.19728317890624789,0.2271545202043559,,,none
1.7878100000000003,77.37544335522917,-60.73198527250883,-105.75910203431961,0.9793638001773483,-0.13516257206389817,-0.4447028663450775,0.12639528445268672,0.06341117632347641,0.23610408697990906,,,none
1.7974740000000011,78.46169248151278,-59.89959781768479,-106.34838473222386,0.6751046936712902,-0.7548168035624164,0.24879348901490267,0.13037392982895873,-0.14958741450387716,0.07096532139284771,,,none
1.806985000000001,79.95819243458057,-59.24551839936088,-107.50276642807358,0.17605540672518744,-1.086524892144252,0.8121243392268986,0.08110146533596257,-0.18328863497915754,0.027239491340605746,,,none
1.8260120000000004,80.58974587336367,-60.273376420284244,-107.97979798474704,0.6178397354771231,-0.931808472084075,0.14311835066761106,-0.20963488190829313,0.033596349229981746,-0.03511923811624108,,,none
1.83554,82.08276294181537,-62.34573877727083,-109.8066313995834,0.39544517663539375,-0.3774849421154031,-0.2553303967909575,-0.4390232927788047,-0.0014277693092550725,-0.10347235354141512,,,none
1.8450389999999999,83.786766812369,-64.85146018686088,-111.84526530617099,0.34464372318456343,0.18808656930542014,-0.6411232703304451,-0.5228180846026851,0.03656238490990018,-0.10248019620946346,,,none
1.854362,84.01858589576743,-67.08406927423843,-110.83280741083597,0.7255926400696938,0.3998628867828928,-1.1138662200248717,-0.4252222544876749,0.1391922833804892,-0.07229008033849231,,,none
1.863893000000001,83.15452152227084,-68.5459212170263,-108.6760500944043,0.8770918954652505,0.4413088656851089,-1.2444253991366145,-0.2555299350966481,0.15697664875936634,-0.03755973597480875,,,none
1.8733850000000007,82.39487957529104,-69.05324157030446,-108.02329835083302,0.7440041934614029,0.3434702911717567,-0.9363046900821893,-0.0791013707264538,0.08418016859546208,-0.01110951634485955,,,none
1.88312,82.03592833642693,-68.7638136646151,-107.66852609976685,0.7255852036892659,-0.015012767133402884,-0.39879226755094277,0.06309179790508584,0.006856508357101762,0.003976705183938033,,,none
1.8925870000000007,81.80443942449392,-68.10774237042159,-107.39528519714615,0.7220879876456596,-0.3671051054148752,0.11694444563071166,0.13039534909878311,-0.023329085663775572,0.011601152381650371,,,none
1.902094,81.61155291642376,-67.62708673145141,-107.25099348112836,0.7145583022365969,-0.6882339503207563,0.4837516731706531,0.09620358760885243,-0.014767440118832595,-0.006884469181675552,,,none
1.9116040000000005,81.7663051296164,-67.78713779498489,-107.45708108983574,0.6251769755022037,-0.749673806046444,0.5770163905080771,0.0,0.0,0.0,,,none
1.9210760000000011,82.75074683857949,-68.79572736608571,-106.93951583596898,0.679638685802716,-0.5877484801252135,0.35859960977476624,-0.2143171495218173,-0.012824006000319625,-0.022554294968914583,,,none
1.930587000000001,84.6183232024139,-70.48400288711512,-107.33092666808396,0.6523692901680318,-0.26895488223323466,-0.02212013864331102,-0.3609564253678376,-0.029659487257486905,-0.0412193046544775,,,none
1.9401320000000002,86.70309518199723,-72.40797577085657,-107.93210325501069,0.5820843301021585,0.07074552130324573,-0.4879718523224402,-0.40714420761147724,-0.015500892502981829,-0.040228924741447104,,,none
1.9494629999999997,88.22792780649685,-74.07692704449417,-107.95387300926033,0.5962961671000925,0.30078771303068924,-0.8943531212201065,-0.34525944741868186,0.01445266889787034,-0.02824141989772972,,,none
1.9615299999999998,89.15943094857826,-75.12499296920555,-108.91174822573348,0.725401805712193,0.3023349930007766,-1.105719877831849,-0.2147465970791983,0.01937703462658632,-0.011963943573878207,,,none
1.968744000000001,89.8844307917983,-75.42578434842652,-109.56435679831407,0.6775973917540515,0.22089340399120685,-0.9506810160374405,-0.0690246193494048,-0.014983994589953798,0.009729630171473517,,,none
1.9784210000000009,90.03634216221288,-75.13504220069154,-109.61752767037532,0.6019426514959844,0.015010578594766797,-0.5548527181667257,0.05225864418742736,-0.026801862417820566,0.018770520982964393,,,none
1.9879270000000009,89.38572344308233,-74.62771743034268,-108.88223768096029,0.5909576039221626,-0.23263919880793335,-0.11694488237998901,0.10710447313501353,-0.0014198738014374098,0.021457542267889023,,,none
1.9974100000000004,88.63187283681901,-74.32735183114929,-108.10329798018013,0.679878828361188,-0.4530032444964012,0.21545087645494232,0.06985696858878801,0.01922430964173473,0.01052523242282917,,,none
