timestamp,roll,pitch,yaw,acc_x,acc_y,acc_z,gyro_x,gyro_y,gyro_z,acc_mag,gyro_mag,markers
0.0,-176.01208155594168,28.63055592310657,-33.953997727212545,-0.15602235470867346,-0.29112527567559804,-0.08837357824133871,0.0,0.0,0.0,,,none
0.009512999999998328,-176.49624492535273,28.698134337069824,-34.28377801828138,-0.18260022029612205,-0.2939272125157426,-0.06927700594126818,0.0,0.0,0.0,,,none
0.019022000000006756,-176.9770690385993,28.73445402828459,-34.52870594845986,-0.18160261471312578,-0.31470135277686273,-0.03758551805976212,0.0,0.0,0.0,,,none
0.028542999999999097,-177.4256842381975,28.719721680320035,-34.67172490651283,-0.16596934645687778,-0.33078743929542853,-0.04710416616215293,0.0,0.0,0.0,,,none
0.038054000000002475,-177.8371066370957,28.64762863506173,-34.73881283329872,-0.13521009825530705,-0.3476678591447552,-0.06314094263634866,0.0,0.0,0.0,,,none
0.04755099999999857,-178.22498527940857,28.536146791374875,-34.78641245056851,-0.10247584377357297,-0.36073541208931115,-0.07866016108255915,0.0,0.0,0.0,,,none
0.05707599999999502,-178.60772290865654,28.418077227006144,-34.878862381358275,-0.0840658861125915,-0.3655797627629146,-0.08541970837095811,0.0,0.0,0.0,,,none
0.06657900000000438,-179.007120624606,28.326440466539587,-35.0621183914317,-0.08450006577351465,-0.3628866564736452,-0.08189181803313236,0.0,0.0,0.0,,,none
0.07608100000000206,-179.42008983911327,28.28286058926726,-35.338907359183615,-0.10442122012646704,-0.3487411272269726,-0.06666661589929504,0.0,0.0,0.0,,,none
0.08560699999999599,-179.83833643136444,28.293066341265025,-35.67902065390072,-0.13870726226115748,-0.33150761070538587,-0.04455028973373928,0.0,0.0,0.0,,,none
0.09511399999999526,179.7631833139559,28.339610249000007,-36.01950661050789,-0.17117623654459113,-0.30877389652011605,-0.02161474680851695,0.0,0.0,0.0,,,none
0.1046180000000021,179.41091455436822,28.39560060909446,-36.302837506428254,-0.2033189576909098,-0.27961165002407146,0.0031269116411019684,0.0,0.0,0.0,,,none
0.11414899999999761,179.12164708164715,28.431283953699896,-36.49475591492028,-0.19693686496185914,-0.2703002344392496,0.004508796908323087,0.0,0.0,0.0,,,none
0.13315099999999802,178.71169255949272,28.365248326379337,-36.64196409419803,-0.12907238250708464,-0.2742675654314633,-0.024867187316083558,0.0,0.0,0.0,,,none
0.1426790000000011,178.53951901143523,28.257953225655204,-36.68624665753044,-0.09039257563707061,-0.2800211701617881,-0.04289527196453742,0.0,0.0,0.0,,,none
0.15217699999999468,178.35247024326296,28.119454486194027,-36.77517340902652,-0.06384917919804416,-0.2851193923234438,-0.05519236462682756,0.0,0.0,0.0,,,none
0.16168100000000152,178.13255795902828,27.984171293446167,-36.934858178553,-0.055242870893093335,-0.2867773299047797,-0.05841459563159866,0.0,0.0,0.0,,,none
0.17119300000000237,177.87434549700671,27.879346566343877,-37.158692178537336,-0.07755632081572217,-0.2742053639131749,-0.08634839035345483,0.0,0.0,0.0,,,none
0.18069500000000005,177.5918872884664,27.80871897219816,-37.41008870496606,-0.09618534837129843,-0.26472104300903593,-0.0811094635599465,0.0,0.0,0.0,,,none
0.19022300000000314,177.30680254002263,27.772563315217386,-37.6437411979123,-0.11638581744073291,-0.25224749878832553,-0.07401553545367906,0.0,0.0,0.0,,,none
0.19971599999999512,177.0401514527828,27.75540746000876,-37.82409682541781,-0.1247813809796036,-0.24467942834893186,-0.06707453351055091,0.0,0.0,0.0,,,none
0.20923700000000167,176.79817042694668,27.74382292773954,-37.93731044127871,-0.12206351689729707,-0.2403669145176035,-0.06351272013958069,0.0,0.0,0.0,,,none
0.21873800000000188,176.57824674913283,27.718443885127645,-37.994685272282865,-0.10496622670027769,-0.23993514802326954,-0.06381223163478797,0.0,0.0,0.0,,,none
0.22825799999999674,176.36153904173543,27.672037164634173,-38.033207633981846,-0.08872093339259852,-0.24144120305481032,-0.07049411794359187,0.0,0.0,0.0,,,none
0.23776399999999853,176.13027102735995,27.60034676825382,-38.090837580228396,-0.07358300467670544,-0.2442263178415524,-0.0716440034023756,0.0,0.0,0.0,,,none
0.2472750000000019,175.87000679118105,27.517267967236528,-38.19913946883977,-0.06843319515571315,-0.24921652984452408,-0.06493438014375119,0.0,0.0,0.0,,,none
0.2567910000000069,175.5775873342575,27.44302141201004,-38.363671213387924,-0.0641868989744808,-0.2549784374841998,-0.03515121252802689,0.0,0.0,0.0,,,none
0.26630300000000773,175.268061461314,27.391048871275398,-38.56493922314233,-0.0794813442967704,-0.25006581549383267,-0.02572607615236978,0.0,0.0,0.0,,,none
0.2758189999999985,174.9607260023415,27.374064291404217,-38.770845982361394,-0.10249687324813785,-0.2435622091112197,-0.012365057377845023,0.0,0.0,0.0,,,none
0.28531700000000626,174.6750508450818,27.38542996645417,-39.001264419218366,-0.1190229418429593,-0.23665097107064414,-0.002068033360897351,0.0,0.0,0.0,,,none
0.29484000000000776,174.42876161125582,27.40609819407518,-39.19261635250771,-0.12242850063486138,-0.23131759294475535,0.0016051726733504919,0.0,0.0,0.0,,,none
0.3043440000000004,174.2276519639431,27.41451232628802,-39.30977706728135,-0.1157151841815808,-0.2284642628908066,-0.00015389170767767573,0.0,0.0,0.0,,,none
0.3138590000000079,174.06645855457302,27.391460490762036,-39.386270228731576,-0.09825389148669585,-0.22764857123675933,-0.007608018144805176,0.0,0.0,0.0,,,none
0.3233720000000062,173.9329499415605,27.331938524798765,-39.47497174343072,-0.07572140556161099,-0.22846527881565462,-0.018000406733282865,0.0,0.0,0.0,,,none
0.33286599999999567,173.8056044784895,27.247090903976826,-39.59408378011115,-0.06754537743702507,-0.22457108581817126,-0.050962928149286414,0.0,0.0,0.0,,,none
0.34237699999999904,173.671711145346,27.147002960874694,-39.74596044450881,-0.05590756509762051,-0.22521359682935083,-0.0565454354443055,0.0,0.0,0.0,,,none
0.35188700000000495,173.53210344103863,27.053275964408936,-39.92066637699062,-0.042744916162851886,-0.22500156686169986,-0.031539116998411006,0.0,0.0,0.0,,,none
0.3614000000000033,173.38776979514094,26.993233698219548,-40.112111672392956,-0.048796737877221726,-0.21544936741996518,-0.02617192582004726,0.0,0.0,0.0,,,none
0.370908,173.2505470835381,26.962955804496882,-40.290172445121996,-0.05643339063400307,-0.20620428001134675,-0.020204828174700984,0.0,0.0,0.0,,,none
0.380424000000005,173.12074060621705,26.949428103683825,-40.42791266764616,-0.06470050197923723,-0.19515588075562612,-0.013518213095329266,0.0,0.0,0.0,,,none
0.38992600000000266,173.0007703139591,26.946133948941757,-40.525999728372774,-0.0679459674926952,-0.1808289523785354,-0.008466157573009092,0.0,0.0,0.0,,,none
0.399439000000001,172.8868996425015,26.948237396565347,-40.601636109529665,-0.06530989421874893,-0.17479033518737663,-0.00809326896892998,0.0,0.0,0.0,,,none
0.40894300000000783,172.7633495044595,26.944743055007365,-40.67282819201139,-0.06034413934337389,-0.17564376711915905,-0.010346522024843189,0.0,0.0,0.0,,,none
0.41845999999999606,172.62810384514196,26.919114123792138,-40.75467728394025,-0.05419105730078828,-0.1772827889989417,-0.013301152018309918,0.0,0.0,0.0,,,none
0.42797000000000196,172.4814331994265,26.87179993589047,-40.87791308504472,-0.051081565685163415,-0.18187972552439355,-0.015449921472586016,0.0,0.0,0.0,,,none
0.43748499999999524,172.32076765534225,26.813950912639296,-41.04942792435481,-0.05119688578851823,-0.19021997204357297,-0.01687184333232419,0.0,0.0,0.0,,,none
0.4470010000000002,172.15526428975912,26.752782070043118,-41.23683315281095,-0.05227718596013845,-0.19607033160583098,-0.017268439059089292,0.0,0.0,0.0,,,none
0.45650399999999536,172.0068589292512,26.689407937313565,-41.410389435318116,-0.06626255363676052,-0.19245563043864428,-0.04061891838885987,0.0,0.0,0.0,,,none
0.4660080000000022,171.8927885964464,26.629337372554584,-41.57195367189674,-0.06594112512081418,-0.19097932302325085,-0.04820251599211603,0.0,0.0,0.0,,,none
0.4755260000000021,171.82143963425062,26.57663967577898,-41.713451908130196,-0.06170806448643499,-0.1848101711130814,-0.06262060072877976,0.0,0.0,0.0,,,none
0.4850330000000014,171.79766272205615,26.530178876032654,-41.80884104500686,-0.052165522349831774,-0.1721401010990874,-0.08496101102700795,0.0,0.0,0.0,,,none
0.4945079999999962,172.0191113033392,26.574270022242914,-41.79834594191503,-0.04393610056464237,-0.16065110660993306,-0.11734775641303104,0.0,0.0,0.0,,,none
0.5039770000000061,172.2487520484721,26.6066027617445,-41.80163618593103,-0.03617018964522592,-0.14716694662211782,-0.1683379695451076,0.0,0.0,0.0,,,none
0.513495000000006,172.4641235826139,26.611895812629673,-41.82558572346701,-0.021315188833434563,-0.1373501501119959,-0.21709774856032013,0.0,0.0,0.0,,,none
0.522987999999998,172.64078484191018,26.58971036455523,-41.904436142027066,-0.012026412559820203,-0.12848457626385798,-0.2828471059790869,0.0,0.0,0.0,,,none
0.5324939999999998,172.7644184718459,26.55513206341854,-42.04489978981712,0.01765634603553694,-0.11635255257655057,-0.34417965711981907,0.0,0.0,0.0,,,none
0.5420040000000057,172.86424555402212,26.52056164540818,-42.2466763587053,0.07283857058243076,-0.10941844035122637,-0.3495270527536492,0.0,0.0,0.0,,,none
0.551517000000004,172.91841208166227,26.51196066654732,-42.52816331398661,0.06732213478603472,-0.11319555367259888,-0.40395932683531527,0.006003698476109509,-0.007817226427037607,-0.05276709719771941,,,none
0.5610340000000065,172.95287293786072,26.559381191572886,-42.88590063643421,0.09279867352867018,-0.057745823318214096,-0.48038326994217845,0.010978341481710082,0.0027845360943221133,-0.06517204944297514,,,none
0.5705449999999956,173.00804088359357,26.696321029162903,-43.30136740950615,0.03244273590141293,-0.040607152078996255,-0.6908135828356431,0.025950963599027214,0.013264031211544831,-0.07780393362988235,,,none
0.5800540000000041,173.02031340128755,26.923956963536757,-43.7409481509396,0.035156988257892055,-0.009663865734034707,-0.8124259616640298,0.03299403550279336,0.03152483799853036,-0.07895490455509127,,,none
0.5893740000000065,173.08690455213397,27.159939591638327,-44.17543602122475,0.01618043657585895,0.0541675355731335,-0.9820741320743259,0.04135721197035954,0.025754973662008934,-0.08515889801239539,,,none
0.5990720000000067,173.28976804310753,27.309768855631752,-44.5959310191515,-0.029050922951946646,0.028011776308099645,-0.9293148376133955,0.046793468527337206,-0.0038371164679272735,-0.09490339942819848,,,none
0.6084910000000008,173.40270935412482,27.42856184026252,-44.97822746057283,-0.09666216413985892,0.07391575326433203,-1.0719974160158094,0.031010031714392913,0.0027261085594233905,-0.08118705107668173,,,none
0.618109000000004,173.40538094063075,27.56284911326803,-45.3518412210709,0.055424023102269286,0.05955754300333972,-0.9096035405828422,0.019409025008495544,0.018614790770869527,-0.06891938443672763,,,none
0.6275049999999993,173.4309123010025,27.684448686632148,-45.74917476742426,-0.020372313866849755,0.060299781620983865,-1.1121178078626113,0.020559319950571843,0.013808538972673876,-0.07380956931191227,,,none
0.6369370000000032,173.30484970012535,27.75626117693711,-46.15574759006593,0.05102680662597006,0.020265672456436276,-1.0204104123012296,-0.005186865103191429,0.026054720288555447,-0.0622738246682283,,,none
0.6464459999999974,173.061497939281,27.848623711108438,-46.591432407917814,0.06527456576264679,0.038610591736199795,-1.0387764692602486,-0.016331402332778598,0.043957019946685126,-0.05744264742125139,,,none
0.6560309999999987,172.77311708680222,28.007368480622528,-47.06446548885089,0.03467139352182502,0.007150895180953545,-1.029424668446497,-0.011697547269355402,0.058950530731239834,-0.060093438564625824,,,none
0.6655389999999954,172.37840815809025,28.187164273012012,-47.533752015782845,0.004237956323305057,0.02431622343853843,-1.0431862160261427,-0.020793161583096055,0.07564696683669878,-0.05050142996401917,,,none
0.6751689999999968,171.9677196986615,28.34080617030909,-47.98852896612238,-0.011558593215255875,0.02140751257805055,-0.9786296353062979,-0.025879006366006253,0.07429961580017835,-0.04465570426933865,,,none
0.6844999999999999,171.5723560282812,28.49321750333799,-48.40668754858448,-0.07146068608187357,0.022033149845678498,-0.9848436732323883,-0.023631921159118573,0.0722404000805035,-0.039903252792829816,,,none
0.6941869999999994,171.17133215217865,28.655446673605905,-48.78581589084478,-0.03789613283093631,0.013170990577447424,-0.9560252912607794,-0.02225026681470677,0.0743694029976671,-0.03334893723141269,,,none
0.7035060000000044,170.849881422015,28.78594269755398,-49.160095520211364,-0.051007360805019476,-0.012529180322172468,-0.9872868809481885,-0.01731780309397034,0.059729883819675804,-0.03839046407985282,,,none
0.7130219999999952,170.54429430072148,28.872009512481323,-49.532512425546756,-0.024875975696956456,-0.02413811332546557,-0.9889750807637787,-0.021831047356429205,0.05189095507664766,-0.040451532127416784,,,none
0.7227029999999957,170.27632437652093,28.96512289249915,-49.94318623156962,0.013069994492120013,-0.03598285206241629,-0.9754276390269097,-0.016108031462032393,0.047883874583785666,-0.050828563925553884,,,none
0.7321199999999948,170.03084993954056,29.09202372105501,-50.39177772148646,-0.004253165246327372,-0.02798796317628718,-1.0269164861487357,-0.008000112551053979,0.04927279732995812,-0.06177201122577986,,,none
0.7415340000000015,169.7668503092649,29.225676441792967,-50.86392119608683,0.025361881148439205,-0.011401094378461873,-0.9991329520931213,-0.008580219074731556,0.0526535556559541,-0.06494187316576373,,,none
0.7511480000000006,169.51506482391784,29.355224824769216,-51.31997672354109,-0.012588806139093673,0.022106001009080056,-1.0148804924674217,-0.007425282192933397,0.050498424976718345,-0.0666542964996735,,,none
0.7605900000000076,169.23063202106928,29.50187673407624,-51.75655542765812,-0.008363837523102578,0.04328405599325387,-0.9830912305605805,-0.00785352447855779,0.05709589810800883,-0.059437031034541586,,,none
0.7700940000000003,168.9289231044246,29.65826032224862,-52.16138839856191,-0.02225884767834606,0.05818887307616957,-1.0041630231384813,-0.007707359245196651,0.060663349000143515,-0.05124273617506784,,,none
0.7796069999999986,168.60676960316636,29.7874950656331,-52.5291876194248,-0.018029284490121675,0.04381844963428315,-0.9984577174143375,-0.013728371840540139,0.06014849623029568,-0.041667912114144084,,,none
0.7891110000000054,168.25120931734293,29.887773368146693,-52.87858763818434,-0.0059114610934277,0.030750516693813366,-1.0009553543820895,-0.021440554197189817,0.06128428657516887,-0.034543335808305965,,,none
0.7987920000000059,167.87387718428786,29.98976433637121,-53.24252140501987,0.006155982422958491,-0.00045968469960736854,-0.995981303959633,-0.023015672084256096,0.0645912198993825,-0.03517033791020636,,,none
0.8081130000000059,167.4712774376069,30.10277822483122,-53.64244529402749,0.005217303564755696,-0.021980798973563625,-1.012367426532821,-0.023378067989191256,0.06951789614997878,-0.03972012895232616,,,none
0.8176500000000004,167.0580521190792,30.212923123247574,-54.08071894293311,0.006160045105906542,-0.0344953331004726,-0.9992313003575071,-0.024371530948583228,0.0707698349345417,-0.04619401499839542,,,none
0.827145999999999,166.65667647785094,30.32460435015473,-54.546846939168105,-0.01769346550770633,-0.026727368463674878,-0.9886133856857447,-0.022320959714694357,0.06941002392343001,-0.05282746611675245,,,none
0.8368329999999986,166.26961870422917,30.455665702200584,-55.01982171238289,-0.025883064062764194,-0.00961425764304878,-0.9676247702330303,-0.017106069081698684,0.06973799775675521,-0.055501488959416576,,,none
0.8463490000000036,165.91843903264692,30.595992694218943,-55.47396323124619,-0.04110019583282487,0.008457037414191267,-0.97215330873859,-0.011435681705967763,0.06577182262417668,-0.05522316147269941,,,none
0.8554790000000025,165.59395166351553,30.720097387751846,-55.88966655336677,-0.03772222111800814,0.021526153579243524,-0.9710930078833618,-0.01098119808846165,0.06016061689119422,-0.05011050931882627,,,none
0.8748819999999995,164.97704430420416,30.933905934569243,-56.64403483836899,-0.004187969051362639,0.01694937587361195,-0.9833954240888376,-0.011730529187208145,0.056312004530460945,-0.04259572991309063,,,none
0.884397000000007,164.63309672032818,31.038430224467245,-57.030235714653614,0.023946809864345452,-0.0020617478199255433,-0.9798023896165924,-0.014770925607207453,0.060861787579762176,-0.041877708879483944,,,none
0.8939000000000021,164.15572349600464,31.279408595439442,-57.50771391803737,1.3131974879311212,-1.6602951501058407,5.104004095029418,-0.0036280906149194526,0.09488305446704343,-0.046157055432610915,,,none
0.9034050000000065,148.8074968734779,39.586007072090915,-61.404194543678955,-1.9843113323215102,-1.2755334334994013,10.983880068862113,0.1567785750810224,2.996007129143477,1.0562128000782682,,,none
0.9127359999999953,137.53326138794557,45.833303315408244,-68.75072900812616,-3.5293373754689124,0.16714060895792293,-2.0747646954225942,0.43121683833627183,2.028655911785283,0.0645432895543907,,,none
0.9224329999999981,150.57688898144795,32.88291507371193,-59.91035283609911,3.5027938356694035,-1.8010455458296224,4.346002409479963,-1.438373518251331,-2.9448340231838612,0.01301593784720198,,,none
0.9318420000000032,142.46221666301287,25.299531184090498,-61.14410189665518,-3.4926464173883147,0.43490704687489196,-6.025603815903473,-2.0199943268830487,0.4845903589098477,0.47283364252516724,,,none
0.941276000000002,141.33355543670294,26.199955747066674,-67.5582939080777,3.7329253225635153,-4.440404535174873,-0.8286018862175377,0.07338114966986285,0.26187099773531575,-1.2777921872956135,,,none
0.9507820000000038,145.94592315445527,25.425931607701145,-66.33483692629078,-1.3796006674479437,-1.599204525588361,-0.4068515922238246,0.18661571353038411,-0.8247071540471067,-0.2581408816798611,,,none
0.9602959999999996,147.62428008924104,31.40142189218781,-64.01277376753112,0.16260671035833135,1.7828125041975922,-0.8884632213919866,1.2092216036966081,0.23806907146650166,0.22769587000519312,,,none
0.9699889999999982,152.70670710276153,43.306709276718564,-63.475393880525495,-1.5413212917033012,0.7730246240362906,1.5926693772062053,2.493907430534987,0.3352806931624105,-0.5851400318416526,,,none
0.9793980000000033,156.76254165741398,48.80813159632755,-58.43783124036096,-1.346347062165257,2.8389321736480873,-4.035098095748134,1.2361332617392708,0.04543701832903565,0.3567455722235633,,,none
0.9890000000000043,162.4094219290881,43.626709977300415,-51.69461739140858,0.44300272714033717,2.896460436610084,2.4019291014840736,-0.3990594761444696,-1.2357740051287076,0.4807623425553593,,,none
1.0078469999999982,158.63822692393907,41.311663840247014,-54.46250441168438,3.7355075106635525,-2.1637280339107576,-2.5258249678621976,-0.42973180461788235,0.49038392760263194,-0.15336178177162768,,,none
1.0174070000000057,154.86354044440387,37.74315204949628,-58.00615418346581,-0.4428496535908788,-2.2351028491764025,-5.730446128071925,-0.9180365785113163,0.08485001029599186,-0.2960175717245321,,,none
1.0268540000000002,149.78980591656952,35.892335261080355,-61.18201983170659,2.4633845935294407,-1.8965417780481366,0.3061278917327609,-0.7323355388075989,0.5117810998834454,-0.08999229102068074,,,none
1.0459000000000032,141.67106553915016,44.47141387427474,-66.77292680187473,-3.462439453690993,0.9492045934539,-1.4952020506786807,0.7153505020632577,0.9047546908458641,0.038770022343442,,,none
1.0555750000000046,139.35613262366775,48.171336780311506,-64.38851921794493,0.3776279188902958,1.336926850478524,2.3442412557555308,0.5413902427996243,0.5986767411731315,0.7785176315287401,,,none
1.0649120000000067,139.07775258125764,50.795976015837546,-60.75087262956853,-1.8374639143711042,2.1253991538577344,-0.3264328712702102,0.449562635849173,0.274918510056198,0.7431187711546838,,,none
1.0745959999999997,139.48823141199404,51.728506920719475,-58.03869963729632,0.19037573323612383,0.6495669516515505,0.2032823533052309,0.1868424133477608,0.05113179762558842,0.44684993539548623,,,none
1.0839940000000041,137.64202237326984,51.28093174950503,-57.17270855146882,-0.5541712608725412,-0.5873831215742126,-2.0157688563524228,-0.19916713869375113,0.14595522759731272,0.426949702946129,,,none
1.093519999999998,134.6986311936221,48.88373023465484,-57.00930934091739,1.2952754419110026,-1.2576276211464543,-2.8582711654357245,-0.6084538870336621,0.05585183283673946,0.4521160952300357,,,none
1.1029429999999962,132.30734233099972,46.27328090955716,-58.288379999324036,1.4495997236625426,-1.9432387692399706,-1.6326091145575805,-0.6143267901978043,-0.007982238769693962,0.0556595359474332,,,none
1.1124570000000062,128.0537676279116,46.25275711595914,-62.23176793458005,1.0254517686609579,-1.043735787763299,-1.7437755220606417,-0.2966124500258869,0.5084308101654008,-0.2198619719251268,,,none
1.1219810000000052,124.67072001501776,47.881333702582175,-66.67830584557959,-0.8661322275174722,-0.6342026120484244,-1.070378603617223,0.09391024216014134,0.5569592919732876,-0.4467829908473795,,,none
1.1316730000000064,122.02773941939385,50.101119895113804,-68.78955577665356,-0.8600807278776198,0.5652327116824599,0.23578133754864028,0.2787225592480023,0.49022129945623916,-0.06907884777311667,,,none
1.141176999999999,121.2131558899253,52.9531218339673,-68.84431418596571,-0.006091864652679455,1.5272062883083415,1.0304023305823908,0.4953277373409644,0.30185086643945547,0.07651996394223909,,,none
1.1506860000000074,122.05785765404646,56.105754398462715,-68.15614163030398,-1.5209095215901132,0.9354754154774486,0.2745371812942791,0.6231376959570029,0.14112729992797685,-0.03865425583864587,,,none
1.1600070000000073,123.08936194127008,58.18211900856907,-65.66142756157551,-0.2677916496355193,0.5690012442310218,-0.8719081938217524,0.42636721049658655,0.060718238210077984,0.29138821682344396,,,none
1.1696150000000074,124.68061213366175,58.22869410748208,-62.16553867415088,0.18495879385394887,0.1117653670951201,-2.0981342822245916,0.08237707740232665,-0.14645634547304065,0.3995945467607281,,,none
1.179107000000002,124.49880818140213,56.99513654362446,-60.967655892781615,0.8080146450614792,-0.5894886916270444,-2.2959680713807686,-0.22638563959949798,-0.10077660239702049,0.2381550583797447,,,none
1.1886170000000078,120.72207406744782,55.748811242192524,-63.72137061912255,0.9762579299041468,-0.9252684338705979,-2.629040252197273,-0.415697130291605,0.25435396723096587,0.04337091932561628,,,none
1.1981350000000077,115.79881558860886,54.666502557974624,-68.30458506285946,-0.11625598706067093,-0.8275675689696357,-2.2719049660524133,-0.42718047375432494,0.4248917469477329,-0.1457122200024643,,,none
1.2077479999999952,111.10813022519162,54.04368600963168,-72.29775215921046,-0.3328968715007548,-0.2553289401080854,-0.6128068717994145,-0.3026093331249489,0.47252841826308284,-0.07512142080304446,,,none
1.2172570000000036,106.24577112956808,54.74349269676881,-75.78425988999236,-0.2638172519467419,0.5791545728267823,0.2703314188152823,-0.022073133626492037,0.5832124775243926,0.05923693740849029,,,none
1.2267729999999943,102.5977407791256,56.80171266941271,-78.40525769613635,-1.3938451128702638,0.6223878899164794,0.8536477981983485,0.30911415205565673,0.4928102059861471,0.04639036052306059,,,none
1.2362739999999945,97.23788178890494,56.26705037794809,-80.83644759369058,-7.700487965998639,-3.7871945913677476,5.836483457408132,-0.21256632259315775,0.5623385469277551,0.378870394856873,,,none
1.245787000000007,84.96567147800525,49.66811185479506,-79.71801298483756,4.029239749313732,0.14098142704233235,3.937717233599822,-1.5475633245900708,1.238016653332354,2.1945667735281402,,,none
1.2551849999999973,72.70936678784383,46.001042030504514,-81.48463732613614,1.4036263690184845,-0.18099347100372126,-2.917436111427405,-0.9894044177675895,1.5060837948656536,1.4817242871856358,,,none
1.2646270000000044,77.20474192122701,48.6373259520729,-75.50579564883938,-3.048507331095697,-4.152039809688873,1.863605676431812,0.6392379028809952,-0.49198668276656565,0.5132123985731702,,,none
1.2741390000000052,75.33152144617185,55.42854998708353,-73.2930027436424,5.633217607247019,1.3495772195514077,-3.4877173180530137,1.2471064567299472,0.5897780218404141,0.7095167717601364,,,none
1.2838320000000039,57.83194715553618,60.71525159988683,-88.47796675715654,0.201581156586726,-2.6176890247887634,1.0154319751266776,0.7384349127254966,1.9918091093797445,-0.09076798751389628,,,none
1.2932360000000074,30.989410669921142,60.812532756792336,-113.25276492836885,0.189147119283082,0.47458686968312436,-4.190618313417141,0.5048534069921378,2.5569327121620793,-0.2923205933801344,,,none
1.3026780000000002,20.49934985281276,62.19678474644212,-127.04268714120775,-0.715733329737452,-0.47413912602026054,-0.8015528579231812,0.739171635669203,0.729340839671195,-0.9879135875378029,,,none
1.3123470000000026,14.884790068084998,64.21985130370042,-132.73150355773734,-0.7700050176032269,0.11333607272202174,0.8706851083565518,0.634898968746648,0.13120869191203274,-0.21202020667924984,,,none
1.3216850000000022,13.925791034580813,61.952172430711045,-131.92306624468924,0.01785813969516205,2.8378679426068367,-1.575689364625511,-0.2782839317834225,0.36932676764306754,0.26816276362675595,,,none
1.3312099999999987,21.639785974069873,58.12638060341683,-125.31015448115619,-0.8006344664083407,-0.723070996822385,-0.7749727542551503,-1.0782577499973969,-0.127899562737135,-0.07267246198032509,,,none
1.3407040000000023,27.87142368442277,56.412683436525924,-116.35558865559331,-1.5178444998067502,-1.7228128396231954,-0.9195930433502622,-0.6391067893541166,-0.40472632812576,0.6950584228939384,,,none
1.3502260000000064,31.731547255582214,56.05584924557626,-108.78534560692792,0.8676959811756026,1.4639294654535724,-1.7836569928545576,-0.2302651519311935,-0.36949778664014726,0.8418482103938241,,,none
1.3597129999999993,29.969371030973083,53.870459047154306,-109.43246030826828,0.5919964991018513,-0.4616216902845632,-0.6855868125146027,-0.34767037120965366,0.33415864760439845,0.1260771914481731,,,none
1.3692350000000033,19.929117847486694,51.25233123611189,-116.7618780610633,-1.0526700152719217,-1.2878268978119694,-0.5597371960100094,-0.003831974267541963,1.3282614914426216,0.09269190554328753,,,none
1.3787570000000073,8.678029174484367,50.20542891294739,-125.8641316538303,0.1621534205547186,0.5451617391276169,-1.149993285140419,0.5595133602015333,1.3266103997922325,-0.1185102835930352,,,none
1.3884759999999972,-1.6373709983557703,48.70693290767988,-134.9561756515867,0.06916751407833195,-0.03196435981533309,0.026790693404032406,0.639127947815026,1.216823114962109,-0.3019479506926566,,,none
1.3979590000000002,-10.412997981678107,44.910724978610865,-141.0959785963564,-0.058717822249735485,1.0371122236474946,-0.22447485196277542,0.3835391181782496,1.3686364928783716,0.001795621587546192,,,none
1.4074829999999992,-14.983926883559848,40.78547707321288,-142.5180119697384,-0.8949253978851226,0.046485133460155724,-0.47528617645885296,0.014838431202126268,1.0637901464255755,0.2915120473925153,,,none
1.416793999999996,-17.97069537500685,39.612641905476565,-140.6053619941547,-0.6802773828560962,-1.1643075287476266,-0.3430591445993103,0.21110754831732956,0.4683199614981305,0.7311623135108398,,,none
1.4263799999999947,-20.639621543943772,40.69366436790765,-136.5336502195984,-0.2264968847019933,0.13777535882288225,-1.6634628174080603,0.4495057602083902,0.10871290766263118,1.1289226848764118,,,none
1.435809000000006,-20.716437227665203,40.965807952815744,-130.9867375652867,0.1727870108848879,-1.3427310222653102,-0.2918372323180582,0.04749137884104485,-0.029159095737326488,1.0882734811917367,,,none
1.4455039999999997,-21.063120053752282,39.084315953127835,-126.3279946737564,-1.7146154916106,-5.032817974181859,5.017666434575405,-0.26143763348455534,0.27663271735804545,0.9458575739006791,,,none
1.4548309999999987,-18.107170333417297,35.709797136803154,-124.49585002517011,-1.1273723148479653,-1.220299570882423,-0.43504623286484956,-0.8230799685499333,0.005932199202169892,-0.05565777504949288,,,none
1.4644100000000009,-14.573827574450037,32.90040955923431,-126.22772885482476,1.9033149164307168,0.4322345781857277,-4.136641706832793,-0.7964168709417944,-0.1544069668885184,-0.8366150828623582,,,none
1.4740330000000057,-18.65692335772613,28.483727054021934,-130.2503891673252,-0.12145504292960611,-1.4074192456523045,4.7389472560962576,-0.2626058020334356,1.0986225495625959,-0.46076951031485375,,,none
1.4834340000000026,-18.73769614290723,20.925095222233626,-133.29176119683657,-1.3686623208871016,3.3292019115933003,-6.376524585795184,-1.122195209012594,1.015959345813183,-0.6698209364257657,,,none
1.4930400000000077,-15.697409248940215,14.952914780995902,-135.24082998988058,0.6357858518797557,-2.6466725794654202,3.828856374380255,-1.2619749688545088,0.4158157765986028,-0.645990181724801,,,none
1.5023850000000039,-19.533669228492826,14.36787338401054,-136.6740343705351,-1.7669476423236259,1.2647269186547212,-1.3846052579312371,0.45096883597925,0.6021381004411758,-0.16128064825772173,,,none
1.511979999999994,-19.64542146404555,14.038902761191133,-135.20501373754362,-0.29681317241313004,2.3357954832236767,-2.837677738628313,-0.030364795501396404,0.06235856216793125,0.2465900172854924,,,none
1.521581999999995,-19.15733659767014,10.523158873796948,-130.75522653857755,0.047234016309612756,-2.4629341184692826,1.9209891144723825,-0.5807827429194282,0.4094218151237471,0.8405902026710744,,,none
1.5309950000000043,-21.680876843145732,8.52710039224072,-126.43467128191783,-1.7696608449659355,-0.43900048225703014,-2.5611992390302003,-0.0017113168321686366,0.6389756796052973,0.9395528321931623,,,none
1.5406009999999952,-22.75169277208194,9.023576996560186,-123.72298976823957,0.9925606654114493,-0.9612597285263758,0.5831544954922935,0.20308645081031143,0.11640597375184043,0.5644755837122121,,,none
1.550028999999995,-25.141436234678178,6.745738016936885,-122.01340901587155,0.4912096317979906,0.7914098491261694,-2.711737688578044,-0.12656648049530977,0.6455039266180801,0.3803883961381991,,,none
1.5594430000000017,-28.224555025911332,1.100563098477289,-121.43946425453123,1.4026944098611267,0.32535362331054385,-0.47197585910001116,-0.638796076058451,1.117423401338884,0.12436648882012807,,,none
1.5689530000000076,-30.380415704035077,-4.733731768084892,-122.88165110894644,0.23456919946420512,-0.07937373245664944,-1.1334589026145965,-0.7607809399038364,0.9858995005392023,-0.3411899974353351,,,none
1.5786449999999945,-30.886679462732634,-8.724702172219205,-125.97559596588069,1.324560975210506,0.5543032974695187,0.015267292767219737,-0.6036121899973929,0.533410663217007,-0.6887082289718384,,,none
1.588155999999998,-29.573213868861917,-12.039200191051405,-128.16075834863582,0.06805283504929104,-1.4838574236702282,6.1323027350763075,-0.6860465951437705,0.19165647921944626,-0.45441307040541223,,,none
1.597488999999996,-23.705344885290266,-10.853023104955813,-129.57789596911826,-3.935990239142706,-3.7503853307131707,-1.2705589277266556,-0.535102761784387,-1.046929981422776,-0.11140014764386498,,,none
1.6069959999999952,-20.9697802854728,-7.054905652116279,-128.928030157876,-1.5850460398115278,-2.3430278606039425,0.2564718861511494,0.24824092819837434,-0.8996629974557722,0.16763532737055925,,,none
1.616501999999997,-21.836887797445197,-10.005472445431849,-123.39230043250426,-3.1560639251606872,-0.8556518209082731,-2.126280607554108,-0.37625189493198685,0.487081280897439,1.0623273293009394,,,none
1.6261130000000037,-21.028334683839784,-14.41243617671909,-116.8499557605646,1.0391995579086262,-0.3110364306809318,1.4796767456582243,-0.8431979669483217,0.3060780281784497,1.3433782174690057,,,none
1.6355379999999968,-22.436668912064924,-15.246249483842487,-113.54040435222619,2.379783937516362,2.2508822256417464,-0.2152332831003947,-0.03504410144229178,0.31776741678638587,0.5903811000419764,,,none
1.6450410000000062,-24.10740931530521,-15.678528844681956,-113.52773719323113,0.4111455197347087,4.071247317966036,-2.9740454271863808,0.048974218043233576,0.3302292731725805,-0.11571658281381053,,,none
1.6547400000000039,-22.385865980422587,-17.689510596046144,-115.48714757675594,0.30269739773162707,-0.4471608379883231,1.1668556092847195,-0.5030969191037723,-0.13434311804469018,-0.33421697032567926,,,none
1.664065000000008,-21.423549024060485,-17.138382915892425,-119.43303545476506,-1.9814885975346552,-2.399862743409777,-0.19698852831522964,0.013674733850949916,-0.21403153540266975,-0.7865982865019617,,,none
1.6735809999999987,-22.496814533179172,-17.113249941300495,-121.60462566672959,-1.8395306639668765,-2.335281570643889,0.5941535731747839,0.10826237318752947,0.17462755854268575,-0.5497135199454954,,,none
1.683090000000007,-25.667205963706618,-20.84062270210751,-119.60116338699298,-3.341427742353913,-2.6316405303168975,-0.9336124316667197,-0.33818697431177835,0.8960258357748813,0.15323742233481066,,,none
1.692769999999996,-27.989110138167483,-24.600511212582965,-115.11976636071442,-0.29972831651615484,-2.23004275610813,3.746332058737826,-0.47195581572592493,0.7267066350288559,0.7037958398446227,,,none
1.702284000000006,-29.2966782516253,-24.696653017422708,-111.22912324598995,0.024784411909240644,-1.7168344955347452,0.4620071680451854,0.07592244646115087,0.22635157629077327,0.6697260862992349,,,none
1.711714999999998,-32.052388475685405,-24.458812089734668,-107.98860691215876,-0.2211614109328881,0.3693269591008667,-1.8353412475775381,0.21322832508809014,0.4567102433529269,0.4191886867779538,,,none
1.7211230000000057,-35.347149017159175,-27.85261006859428,-104.01353804624455,0.540265188728531,1.4324386534940678,-1.648655226873492,-0.489862514942078,0.7565859285482885,0.5045380737445029,,,none
1.7306329999999974,-38.01253485450458,-32.54729378786043,-101.21619019941434,1.265617653851486,0.8554353293307613,-0.7477716800144854,-0.816459166338253,0.6554914612664742,0.29104662009668164,,,none
1.7401710000000037,-38.54677116256886,-34.53832969773092,-102.63907530079292,0.6182600312016434,0.9267227893780916,-0.8457763802288174,-0.3718808080364297,0.16912831629451724,-0.3764003775506553,,,none
1.7496650000000074,-37.342068841973955,-35.09080249621644,-105.7750725509795,0.0478343373632261,0.42701728624636165,-1.178059612694745,-0.15540045280358222,-0.16521827585266896,-0.5483232901955768,,,none
1.7591699999999975,-37.503696984037845,-36.935896080869554,-106.6368464255656,-0.9365031734028276,-0.7079779916468018,-0.8662759955600319,-0.34775831769032506,0.12746704922659902,-0.2440193513141908,,,none
1.7688579999999945,-38.85982385714114,-38.82940252933048,-105.18388607539084,-0.7653939854002536,-1.6203660614041016,0.9193173449285412,-0.30628498765907397,0.3096333102994825,0.09374815352910681,,,none
1.7783639999999963,-39.97016764411957,-38.29797493909592,-103.4301792610621,-0.4988012812545729,-1.7592261148899468,0.952615365179492,0.14594566629932829,0.14224589219652703,0.19576900981963266,,,none
1.787700000000001,-41.03225576743116,-36.74923488089992,-100.83164233884001,-1.2316297461368346,-1.8551686651914603,-0.15126522089363836,0.33855988670428494,0.09990137738330532,0.37805021027191366,,,none
1.7973949999999945,-42.33739455747669,-36.49457242961254,-96.75258867596732,-0.555612350611472,-1.4829967640950579,0.12509416199897141,0.08241583474324082,0.19946793261357235,0.6607740853208633,,,none
1.8069260000000043,-43.39162259197957,-37.32261953261833,-92.84467822801089,0.0046450679655779484,-0.6638780316342929,-0.09630119447199374,-0.15116383713787548,0.1820464290399927,0.6556028263928757,,,none
1.8164110000000022,-44.45942819872549,-38.97146388061102,-90.33615986850523,-0.004335469336883664,0.36479168653724503,-0.7815606523377467,-0.32540001691315384,0.17722456161314373,0.37008322776744224,,,none
1.8257449999999977,-45.03025321753828,-41.546626743370204,-89.30749858181663,-0.44340044147958735,0.5221641733332737,-0.7973828719282786,-0.5159329804366176,0.08561099509853293,0.1319610463449024,,,none
1.8354329999999948,-44.26022783261437,-44.142661809791406,-89.98380960110805,0.048728253205622594,0.5729766982746716,-0.5512431318150353,-0.5190292482732498,-0.11663477391209254,-0.04714166312409376,,,none
1.8449549999999988,-43.74327434452393,-46.17899256924922,-91.70150126541066,-0.3821150414239186,0.32008502563557095,-0.46279806207935936,-0.4087138134455786,-0.06738630456196693,-0.2943663138303662,,,none
1.8544679999999971,-44.27040979081067,-47.767512212325414,-92.42672305340699,-0.8285562978728566,-0.1661826006973426,-0.29255192352853476,-0.3154039562471532,0.08302572776875436,-0.25315489825630116,,,none
1.8639820000000071,-46.10423583042061,-48.612471960095576,-91.24977133735536,-0.40457776870705997,-0.6136924655416105,0.25255738216260964,-0.1615046122773388,0.24990777058424035,-0.06102218377104302,,,none
1.8734639999999985,-48.88969356920422,-48.01145452603348,-89.01239484714462,-0.3799994180757381,-1.0809545197632715,0.48593438414691215,0.1208383461217866,0.3707071938787375,0.012307893086886767,,,none
1.8829900000000066,-51.374658902289276,-46.198792280622655,-86.58874043166306,-0.5019763400113049,-1.336378726229229,0.0014637236399864726,0.3495234550345399,0.35240826627437666,0.11436243950688706,,,none
1.892312000000004,-53.62019544068687,-44.57150558523596,-83.66710191981626,-0.40382191524714933,-1.3103791042075057,-0.4355664170792202,0.2977870670654264,0.34227773224413083,0.26489245889077356,,,none
1.9018570000000068,-55.71807539236123,-44.065870107301386,-80.57827383641586,-0.10969610112298701,-0.8927299101905549,-0.5817388621901225,0.05906663359582244,0.31152661412595356,0.32495493186501195,,,none
1.9115170000000035,-56.99857674995536,-44.7803586480415,-78.45706579909738,-0.06234943762982822,-0.4683022492032332,-0.7089169506943296,-0.174016200058362,0.15399618661144504,0.24519906958563006,,,none
1.9207739999999944,-56.93608103357313,-46.492457756574204,-77.94101676258376,-0.3004800113318862,-0.20512018522286293,-0.9088550565159629,-0.33381060883986097,-0.07869095217974952,0.11218574566543896,,,none
1.9305460000000068,-55.92797638382324,-48.881039262517284,-78.5727325001455,-0.3299287571590416,0.0032394566913837514,-0.754652462089018,-0.44062290280922034,-0.23038125417090716,0.022687997413140887,,,none
1.9400509999999969,-54.688282189862065,-51.2845907997476,-79.58768141130729,-0.35858722556110234,0.05236463206065531,-0.36678061807759965,-0.44226151116877144,-0.24778949197264688,-0.02473477072587401,,,none
1.9496060000000028,-53.77295551883916,-52.868168445094334,-80.50506879750584,-0.4760965080790596,-0.04977750298291409,-0.060847743860271655,-0.2927808531147125,-0.16588028885849274,-0.04970881564070323,,,none
1.9590800000000002,-53.717464100674064,-53.19454339972668,-80.64277381832682,-0.6071617370584366,-0.3160286938130293,0.07376712496119102,-0.06337561606250738,-0.01731490108893523,-0.02687156353323226,,,none
1.9685810000000004,-54.70145948712209,-52.355356640463356,-79.56038676003313,-0.587658947288619,-0.6261028564790166,0.10751252112205835,0.14502296632385606,0.14630678399249564,0.055885554677350534,,,none
1.9777069999999952,-56.23624583792093,-50.72583444273123,-77.66833610362035,-0.3768656792317232,-0.8343133796913407,0.08962256121700585,0.2821287725679315,0.25175076454463025,0.13824774520083857,,,none
1.987605000000002,-57.64986322534096,-48.91171809625363,-75.758846593086,-0.30983289461844726,-0.9034295369679268,-0.17367978506272588,0.31154923259723466,0.26118740004412594,0.16612054567961942,,,none
1.9971299999999985,-58.705589786450105,-47.73375348277442,-74.16501258442123,-0.32813319621410725,-0.8320342518646907,-0.47899827436147263,0.1913200371671931,0.19691717360839295,0.16127774924660174,,,none
