timestamp,roll,pitch,yaw,acc_x,acc_y,acc_z,gyro_x,gyro_y,gyro_z,acc_mag,gyro_mag,markers
0.0,-85.71656082864777,18.229989898465274,157.43645942706985,0.17042415486200196,0.032761632824021406,-0.1269833655596128,-0.12467256619078783,0.026028837857544455,-0.007682471919844419,,,none
0.009508000000000294,-84.97578416697905,18.31500783831404,157.43858896683892,0.17500119011590157,0.0024550338525742453,-0.12967401364608777,-0.1365232381001002,0.03854970938402449,-0.0073174212134139655,,,none
0.01902199999999965,-84.15201072674236,18.332373060850724,157.46342767142434,0.17980073479190664,-0.015351749678289357,-0.1225971313235588,-0.145845132012586,0.057062936205054975,-0.010339040506576528,,,none
0.028538000000001063,-83.261370384524,18.270590462134557,157.47831890909296,0.18283892755397696,-0.021196503197343793,-0.09321452918326417,-0.15151373120182035,0.0765483134382017,-0.014656535199593987,,,none
0.03811100000000067,-82.4071152627983,18.347783002730722,157.46417541651098,0.19376860298249773,0.018098302679665997,-0.05839827364480459,-0.16000425910343033,0.09331982641157507,-0.018343994538669178,,,none
0.04763399999999862,-81.4449601511554,18.38434716144686,157.48012131162594,0.17593262790583386,0.005105272247353131,-0.016288838341148627,-0.1726895276340807,0.10288408668718044,-0.024126394362788264,,,none
0.057138999999999385,-80.41162167280838,18.443527842528137,157.4543406554055,0.16668941051517283,-0.014659393449148293,0.01619370301397146,-0.18251686489750393,0.10073220441238594,-0.03232437573596564,,,none
0.07616000000000156,-78.38873265750667,18.686366807984513,157.36337943516384,0.15713775612107472,0.009173959431910331,0.07658599763533712,-0.19064614485590545,0.07995058500686011,-0.03913939467199524,,,none
0.08566499999999877,-77.3573067895491,18.860374357945418,157.35559740711074,0.15339484589656613,0.0012581384417437217,0.08828054647789745,-0.19401791970742266,0.07446828121355785,-0.04184342220592103,,,none
0.09512199999999993,-76.26859883706635,18.877382406114506,157.33709067073855,0.1532143479969254,-0.021499091217087707,0.09093529309016456,-0.1915552749958923,0.07657153581987168,-0.04203247287011962,,,none
0.10465699999999956,-75.21525692679876,18.838948500916946,157.27653401457846,0.15741381282644845,-0.02143028140913961,0.10373939721700087,-0.1810089821749791,0.08441249129828701,-0.04016566204600633,,,none
0.1143010000000011,-74.18095961096634,18.730770901988556,157.19560418905724,0.15124116413408073,-0.04463586593235898,0.11825620564257973,-0.17223087041711602,0.09614205203093988,-0.041723092227686,,,none
0.12361000000000288,-73.17715798832592,18.565838537889213,157.07520140452732,0.15169488464331202,-0.0438238085462043,0.11799435329099787,-0.16243616027400634,0.10472303172262015,-0.045313340848490605,,,none
0.13312199999999663,-72.22274855222933,18.379639321796997,156.90173443788714,0.15851310392918494,0.0019132520312094912,0.1257936952446231,-0.15203392463307996,0.10547334820256109,-0.04866183957588902,,,none
0.14268300000000167,-71.26932080577653,18.219179577249808,156.68955849736412,0.12908209619939345,-0.02675974598090298,0.12479551093001354,-0.15370433951586523,0.101264656127072,-0.053661979721996406,,,none
0.16169900000000226,-69.49255522653893,18.07553071287452,156.3256566069332,0.12210717852758375,0.03519373443769846,0.09494757197492201,-0.14755947053842683,0.073494558335687,-0.04987686258390944,,,none
0.1712549999999986,-68.71281976731743,18.178027456577613,156.14267112544104,0.1098692709603588,0.021078657507419774,0.07457849893139755,-0.14828772023862377,0.06391771582110241,-0.045925020949261396,,,none
0.1807819999999971,-67.97938385803053,18.29444772156237,155.9933165139742,0.11404070582810513,0.019634358472481923,0.056135645333475315,-0.14095503398263348,0.05940996052306026,-0.03910950054001079,,,none
0.1902879999999989,-67.29470294886713,18.38995748740452,155.86603557643875,0.1252434211721942,0.023667145070656842,0.03955923081200978,-0.13154708759327127,0.062464563624359586,-0.033384702267414954,,,none
0.1997889999999991,-66.61960910395734,18.456649830557748,155.73075802600187,0.13892917030050314,0.0021365905673678288,0.015063179862736994,-0.12369947332683716,0.07042535097896803,-0.0324220686002571,,,none
0.20930000000000248,-65.97414413495301,18.491961652728925,155.58718291889122,0.15005947895417585,-0.00020999422713629908,0.016665484016411457,-0.11303361129352371,0.07746511006478875,-0.032948440383189725,,,none
0.21882299999999688,-65.37625494356371,18.511277077979983,155.43158727181753,0.16162240843627415,0.003476788974809612,0.014721568192735925,-0.1036516596129518,0.07966405541297547,-0.03412126462291949,,,none
0.22832099999999755,-64.80231268679167,18.537819310728057,155.2579099339077,0.15675594558642478,-0.0048191383139483835,-0.011545304213399308,-0.10004835742131608,0.07573708728078221,-0.03721541128654137,,,none
0.2378290000000014,-64.26714963550282,18.60600538356897,155.05966725139015,0.1527338412970753,0.01103133274826346,-0.03478854669151216,-0.10032229858239462,0.0653204191352635,-0.04007787012208205,,,none
0.2473429999999972,-63.75825016581955,18.71104360328479,154.86627371464186,0.1291461905357199,0.019627238188566872,-0.05723147282485874,-0.10088423151776538,0.05220654673868007,-0.039487265713439516,,,none
0.2568090000000005,-63.28078681559863,18.8404206869206,154.68458438634457,0.10648556843449329,0.035664746867026004,-0.07913395235892015,-0.10142656884566512,0.040863235089934634,-0.035717645722354134,,,none
0.27581900000000203,-62.223647673463475,19.007907790351954,154.4478662225875,0.07147758426750964,0.04821976498339007,-0.12682187368794134,-0.1001653384158963,0.03977649235308162,-0.024522396716263117,,,none
0.2852819999999987,-61.643721956788646,18.995232966288317,154.39319850104846,0.0644634120735845,0.0289832548291568,-0.13248391437556753,-0.09786552307520038,0.0498139188708971,-0.019594677139927845,,,none
0.2947880000000005,-61.066218186503285,18.923531822388757,154.34416162241345,0.08833223648860082,0.013566502619910237,-0.12268199592983534,-0.0923018593930038,0.06036787784180973,-0.01712466111411097,,,none
0.30435600000000207,-60.47716099691744,18.803990293795056,154.29100079021677,0.10987502878812026,0.0029800313626658836,-0.10908988582729087,-0.09011107061170734,0.0700608115023851,-0.01743652413620857,,,none
0.31386699999999834,-59.94206701531364,18.798029168077864,154.21243603527228,0.12627034239935486,-0.006659719981045733,-0.09237902793494075,-0.08912195998708725,0.0759923122684267,-0.018157867193328302,,,none
0.3234230000000018,-59.43218131780311,18.802868202968032,154.12478886740095,0.13974242488065527,0.005171407113682837,-0.07420194864784842,-0.088556408634371,0.07466370505317171,-0.01957408891514155,,,none
0.33289499999999705,-58.91973420522009,18.850342369432056,154.02203042122295,0.14061334753469787,-0.00028265182411218325,-0.06263681609855072,-0.09134889127783405,0.06713929767094909,-0.022595739910215424,,,none
0.3424030000000009,-58.436512385239105,18.935932697607768,153.91882809626446,0.13321098806915574,0.007254089700788257,-0.06198357881722361,-0.0914175169725671,0.056251791495198177,-0.022370615031050745,,,none
0.3519180000000013,-58.004349314917484,19.039056357588553,153.80769613734026,0.11917878632414217,0.02801897759195088,-0.07281780558494069,-0.08917963864237181,0.046036180538437214,-0.01962725397102907,,,none
0.36146499999999904,-57.58096116290981,19.143892901042094,153.71626704018473,0.09326996923473045,0.029624140413776767,-0.08335734327764244,-0.08825429886983499,0.039229999513919984,-0.01817619209333432,,,none
0.37097900000000195,-57.15670101301821,19.217454639079108,153.6585305445985,0.05499701676012557,0.03315280985284355,-0.09919105895263321,-0.08500334167299067,0.03900582481266436,-0.014744578737673077,,,none
0.3804920000000003,-56.7385285634564,19.231238027191836,153.61613834517024,0.05747718003045364,0.03729952809887637,-0.10008623470472809,-0.08129171372826385,0.04674621285364755,-0.009984696814297124,,,none
0.389996,-56.25579938281807,19.17588637277661,153.6031920680934,0.04229429585002036,0.015096579887534118,-0.08963762158522774,-0.08048655214668257,0.06084927182977613,-0.007347767164063905,,,none
0.3996559999999967,-55.75976950981379,19.073781953453746,153.60710575637663,0.04435418904303834,0.027626264834337933,-0.07938970940475466,-0.07900164925346231,0.07573220539427841,-0.005787268876414182,,,none
0.40901500000000013,-55.191804962743284,18.941437711349483,153.62580260303835,0.08777709848095414,-0.0032172353778689286,-0.03137524787573837,-0.08371550429706555,0.09171038866833299,-0.005872691825594368,,,none
0.41849699999999856,-54.5582768603951,18.804261762360362,153.6454022446617,0.11590655558112503,-0.0211182936980278,0.014098191063164019,-0.09142675044250621,0.10325268473065206,-0.006714041328764594,,,none
0.42803900000000183,-53.86728403101055,18.693647412926747,153.67469254082746,0.13658995125041876,-0.03555086299800166,0.08827064055594168,-0.10344010227066051,0.10889068433486672,-0.010602911271246839,,,none
0.43750799999999757,-53.05675101122699,18.459737112655002,153.73736926430715,0.17912118210647077,-0.032294953174548294,0.12890400547477435,-0.11705306929241908,0.11024870167996034,-0.01571229181372039,,,none
0.44695700000000116,-52.215615000492065,18.25442003790949,153.76707662685772,0.20496050120261217,-0.005342805503079719,0.17796528882977988,-0.12505726117875,0.10770067693600036,-0.021294087817709105,,,none
0.45650199999999685,-51.33162854255304,18.075412979493056,153.7299323194356,0.1870282709386648,-0.02529472333818618,0.2346258746287882,-0.13482347709678746,0.10671584720096948,-0.03062838212447723,,,none
0.46599399999999847,-50.46468948737981,17.90513855112176,153.6488427120057,0.18017140383172317,-1.7233435938708415e-06,0.26217117905389065,-0.132733819256154,0.10391760467462031,-0.03815730870561188,,,none
0.4755059999999993,-49.62285119800872,17.72528138384506,153.55233874316502,0.15970564985922303,0.02141666496632286,0.2815042374803417,-0.1276050890765223,0.10375034484376998,-0.04455441940635262,,,none
0.4850159999999981,-48.817876314111714,17.529748640961166,153.42332774057604,0.13930872417678777,0.038261083474876806,0.28559816738865607,-0.11985464380099915,0.10373779826238685,-0.04805551217468101,,,none
0.49452499999999944,-48.06487600874848,17.324393901688808,153.277385923705,0.12261178369014127,0.035616830469798445,0.28904343838728985,-0.10999715200114231,0.10140141685281313,-0.04622118846144798,,,none
0.5039929999999977,-47.38159111058423,17.12176065366211,153.1454830202763,0.13747096797015798,0.051963890770244305,0.27680188466437017,-0.09824558558591029,0.09523080798874019,-0.03878322644496291,,,none
0.513544999999997,-46.728580902970805,16.943805070859344,153.00579644122328,0.15546070637122958,0.04040458733951883,0.2657453040746395,-0.09518512459174902,0.08852450948446186,-0.029960150922820842,,,none
0.5230599999999974,-46.104668209067036,16.805263496561263,152.8763891680541,0.17541761885269394,0.004445307356997847,0.2578090116891113,-0.09369605569328068,0.07924702581555444,-0.021757196707102164,,,none
0.5325669999999967,-45.5313917435865,16.709545095855532,152.7720158684738,0.20642125925320223,-0.01678483180891436,0.24355307452684466,-0.08890771039360203,0.06739682247644954,-0.015293614440798759,,,none
0.5420850000000037,-44.992338498098015,16.645440744290717,152.69858751034525,0.22503528869567196,-0.02357840115919557,0.23028858658959783,-0.08594288488891284,0.05888799446315376,-0.014685589542230468,,,none
0.5515870000000014,-44.46355855406502,16.59769086743848,152.64375930118652,0.22152534748071956,-0.040933466168591996,0.22435294670241407,-0.08568425839892937,0.05514649921461229,-0.020205012802118942,,,none
0.5611009999999972,-43.96426676594957,16.540241041359366,152.54624635319556,0.2159340091713174,-0.027094852479361373,0.21198350242035638,-0.07972147179652443,0.05438394192761031,-0.02788593491715174,,,none
0.570609000000001,-43.48255188759019,16.45935176674998,152.3747254762398,0.1983837342405616,-0.0005006338048971868,0.2032548226920691,-0.07444909369194876,0.05719883629887917,-0.03681073066988115,,,none
0.5800840000000029,-43.01531071768776,16.36129563513552,152.15607351714354,0.17427941289016574,0.01189024216552825,0.2038591057592878,-0.07022777387373032,0.059218310552219745,-0.044741034252427585,,,none
0.5896429999999988,-42.581683669362285,16.250366309534957,151.89882311634312,0.17159814997026027,0.0473214030224619,0.19116234745428423,-0.0630992993202308,0.05878282115283062,-0.04589379644070392,,,none
0.5991340000000029,-42.165592024841324,16.14667430579758,151.63293358343014,0.1626071548392638,0.05383515638730828,0.19097811268844583,-0.060577545899686176,0.05622817229724811,-0.04220366648880245,,,none
0.6086619999999989,-41.78836658826889,16.071997106255125,151.41469799444405,0.15945116377906726,0.04075108957067223,0.1936841110509989,-0.05659193810066994,0.04781222513748521,-0.03493650879830461,,,none
0.6181710000000002,-41.47128611667558,16.032761560235535,151.23168435138373,0.1884622035727429,0.05158328429466875,0.16532879871845033,-0.04971258327363113,0.03623097627830766,-0.025499528097520135,,,none
0.6276860000000006,-41.19650538098102,16.020140168947545,151.0859038534423,0.1952585114686379,0.030254217931601195,0.15496877693668454,-0.04506812525241027,0.027772053849165392,-0.018598543004634104,,,none
0.6371429999999982,-40.98248963971362,16.019109581156382,150.92674470071825,0.18080325453338525,0.0017442859999124032,0.164339791028389,0.0,0.0,0.0,,,none
0.6466990000000017,-40.81630984470479,16.01540025247985,150.71653867384182,0.18238008702521477,0.007202948242730597,0.13045125176071165,0.0,0.0,0.0,,,none
0.6562230000000007,-40.686531216314094,15.991574783525365,150.46556632376704,0.14395198600431486,-0.0102352171210777,0.12716652741595433,0.0,0.0,0.0,,,none
0.665693000000001,-40.61473758327324,15.942396179545616,150.17049597344476,0.1297075126079855,0.012883754343664,0.09782185265731032,0.0,0.0,0.0,,,none
0.6752029999999998,-40.577888662973024,15.873404932244547,149.85813131456257,0.11231079518661288,0.01808948716545904,0.08917805534149333,0.0,0.0,0.0,,,none
0.6847090000000016,-40.559335698944466,15.786350768082768,149.56452922419598,0.11654086500610997,-0.00040397885683901666,0.08066325449390836,0.0,0.0,0.0,,,none
0.6942470000000007,-40.58037366613298,15.681231008775907,149.32387801956904,0.1716432818509245,-0.005033657133281405,0.06556301099587612,0.0,0.0,0.0,,,none
0.7037379999999978,-40.60918185814887,15.57087578706012,149.13904387614463,0.22529919675437626,-0.029077205263313234,0.05857710350442589,0.0,0.0,0.0,,,none
0.7131959999999999,-40.683798071343894,15.476092132946345,148.95323751051896,0.22035605357777674,-0.10365798008367634,0.03709343185549261,0.0,0.0,0.0,,,none
0.7228710000000014,-41.000195699512894,15.634389158742739,148.74135079270783,0.13488907318311685,-0.11868729618092624,-0.04859249877841496,0.0631562105433718,-0.027580773174406506,0.0055994001020728094,,,none
0.7323169999999983,-41.58994326376566,15.668512736550985,148.507113191343,0.27967722742548873,0.05197681577479056,-0.44431262247427333,0.09345825360072764,-0.06511515591405767,0.005550283130869507,,,none
0.7418000000000013,-42.415223227944836,15.705320794953055,148.2227679086103,0.005225033707284881,-0.10726919330994863,-0.5298409824054983,0.13147384159957237,-0.08986809653868749,0.014506454105615928,,,none
0.7513070000000006,-43.830798603090145,15.83088955647496,147.81431671552815,-0.09775332924489674,0.06414196954151485,-0.8319357724573248,0.21787936007106537,-0.16600680058200412,0.018035165249788696,,,none
0.7606000000000002,-45.53004909130652,15.999856846660967,147.38193827667357,-0.14255339723592372,0.09517536189957372,-0.9582825801513664,0.2579851175445005,-0.20404312737228036,0.021101405572626613,,,none
0.770152999999997,-47.268971556055675,15.96426291617745,147.11861944349826,-0.2360134231797224,-0.0012372899746418268,-1.0609317283297128,0.2851883184737247,-0.1753483034875231,0.06526669169142069,,,none
0.7797349999999987,-49.10368516521715,15.77001072581364,147.03166318107154,-0.10946793097183383,0.13492425980967357,-1.1070193558297408,0.31760265662647225,-0.1596746371449327,0.10180285805722511,,,none
0.7892540000000032,-50.51811937717291,15.590812381427952,146.9369795272701,0.03886448618210492,-0.07816880218008511,-1.128860648581869,0.24808850743790054,-0.11866373028656885,0.07476672931409442,,,none
0.798683999999998,-51.68391729904119,15.365030982083182,146.8343783011705,0.11054703900618548,-0.3242770082831403,-1.129634087612371,0.2130393117073901,-0.08520202104222353,0.06032421332686858,,,none
0.8082030000000024,-52.734110330537426,15.12961577644453,146.66732365823705,0.18931409316758438,-0.1756733882005682,-1.1483591009937644,0.19543769375434708,-0.07197381354712971,0.04100544881605271,,,none
0.8177899999999987,-53.32442549493779,15.057419295668803,146.31404234463744,0.1151074049742604,-0.18443683346961767,-1.1652383975491636,0.10309480354326146,-0.05101497320038304,-0.025052962367083112,,,none
0.827302999999997,-53.630127738823894,15.095697868530568,145.8929440511838,0.017054255775927243,-0.1216488813846931,-1.170335423273837,0.04476425623617112,-0.03934116223749417,-0.05855556891512529,,,none
0.8367979999999982,-53.682325991145994,15.129886554725301,145.56395318935935,-0.06636141065637961,0.09637789326267183,-1.1662690572109944,0.004474166832270092,-0.011341394543317252,-0.048597613525333726,,,none
0.8462229999999984,-53.43185697898053,15.174517484693778,145.32302531991954,-0.188498714178433,0.08794707092613478,-1.081034718301204,-0.044916304584075625,0.02013595033566411,-0.04144630598724476,,,none
0.8557069999999989,-53.117012056601126,15.190254683257608,145.17998402203537,-0.06894725281679401,0.10513239036801128,-1.0081131063048758,-0.05175429039313228,0.032132342082962555,-0.02457910693459677,,,none
0.865393000000001,-52.76712222970197,15.082690581107157,145.15333314696548,0.013481233170669361,0.03021152844337896,-0.8888706409911973,-0.04314599561759025,0.05634883740778192,0.0004878318118652683,,,none
0.8749429999999982,-52.52017199926511,14.903400965850208,145.11220027483986,0.04509023991819817,-0.08056628008897586,-0.7903388669795399,-0.018611650168890645,0.056774653161509474,0.0006586490570362697,,,none
0.8844600000000007,-52.54594791773711,14.74243798505683,144.8823266735025,0.13858787386350901,-0.08586046064401656,-0.7555690671670193,0.0,0.0,0.0,,,none
0.8939270000000015,-52.78136621398845,14.59306489582541,144.52881857109674,0.11162254150841558,-0.05697045934714538,-0.7788874246775593,0.05449546429003692,-0.0019784123832272196,-0.041092201261742005,,,none
0.9034310000000012,-53.21393718781014,14.467076497012686,144.13011612992017,-0.02884695010395133,0.012654724607952153,-0.8357430754800705,0.08279824200730734,-0.028454280911026697,-0.042027591087854206,,,none
0.9128059999999998,-53.79062324416835,14.419231443366193,143.75804310311912,-0.09917542624370562,0.0990371282341399,-0.9374068699088887,0.0960101370734836,-0.05810482452755932,-0.036707999921557335,,,none
0.9222780000000022,-54.38430056915556,14.40572577081116,143.51944381585088,-0.12023528255554475,0.10620692560081224,-1.0231483680137547,0.09428983058166546,-0.06610821853637482,-0.010650603045522594,,,none
0.9318470000000012,-54.92515586080832,14.367199051739581,143.45555214214184,-0.10576175436140954,0.06492810534493418,-1.0650783530625865,0.08886470398621514,-0.05625869807384581,0.026484489695700244,,,none
0.9413739999999997,-55.362201758961355,14.321982975488083,143.4812899253044,-0.028436324177696846,-0.03246753143294398,-1.0700204199747034,0.07348747092106969,-0.0432270007695967,0.03846528937521654,,,none
0.9508490000000016,-55.68519400984979,14.261626704403998,143.4767357057584,0.08856351320511069,-0.13493421134163747,-1.0591195026163822,0.0575405304247995,-0.027614269220540617,0.027081540453215463,,,none
0.9603259999999985,-55.89867199873154,14.149436537498806,143.40161302394125,0.1285948545161493,-0.17267303064696904,-1.0293572801690072,0.0,0.0,0.0,,,none
0.9698430000000009,-56.0206467938742,14.0153473446593,143.18949750093083,0.08179301411220972,-0.1463389364084177,-1.0020767271971576,0.0,0.0,0.0,,,none
0.9793839999999996,-56.09704995404845,13.897809681628443,142.82653220737612,0.027391495948358442,-0.05068404977504972,-0.9874876237801744,0.026021836097188444,0.009850797283868451,-0.058632939076525954,,,none
0.9888489999999983,-56.12524753976225,13.781650662544394,142.48634534946575,-0.04726745953532776,0.05887440527500181,-0.9765198032045697,0.018470028893759358,0.015157387436079205,-0.060688591825033104,,,none
0.9983949999999986,-56.12524864263235,13.672098059180856,142.25315539911347,-0.12049340598254119,0.11878999330439448,-0.9504608709136781,0.0,0.0,0.0,,,none
1.007900000000003,-56.148093825170434,13.596301688077814,142.1191076083425,-0.0960335537599386,0.11640245111078318,-0.9256367266357818,0.0,0.0,0.0,,,none
1.0175969999999985,-56.21108842872059,13.535325354431183,142.11492336987797,-0.022695493681266794,0.04343406986882622,-0.8982139161937948,0.0,0.0,0.0,,,none
1.0271069999999973,-56.34650775008289,13.46717913532693,142.15401139393595,0.03514700205851295,-0.04574947539902231,-0.8769021560886551,0.0,0.0,0.0,,,none
1.0366269999999993,-56.57524960327307,13.40315247351749,142.1375912718104,0.0812279533179701,-0.10505994102945075,-0.8828963631398655,0.0,0.0,0.0,,,none
1.0459470000000017,-56.885948265931916,13.33340849689565,142.01120988856727,0.085155019427007,-0.11617011553058396,-0.9172646300528431,0.05632309620950527,-0.026184051235446815,-0.010921437442843037,,,none
1.0554200000000016,-57.23747988111351,13.229845494259274,141.7931856324251,0.03372422099509491,-0.06326497403171531,-0.9625226893610555,0.06670006179552755,-0.025947405937733307,-0.027482611882544736,,,none
1.0744799999999977,-57.84868670928504,12.969614421155072,141.32214722441321,-0.07257124703370742,0.0593264646314331,-1.035522799872025,0.05856877865718365,-0.01270653424239141,-0.031172656573095675,,,none
1.0839940000000006,-58.0252753403721,12.832731930584545,141.21968720377794,-0.06708621462931166,0.06311488839904524,-1.0308342733023068,0.0,0.0,0.0,,,none
1.0935000000000024,-58.09678049044085,12.708880169077931,141.22736044189094,-0.0364624203593446,0.01433186732923734,-0.9883318814418562,0.0,0.0,0.0,,,none
1.1032230000000034,-57.783904573381456,12.569114632136435,141.34043044828869,-1.670576349898813,-1.3836918528136224,3.663829609879904,-0.03019020059607468,0.060065243805051016,0.0089311262962446,,,none
1.1127000000000002,-43.03547536575586,10.006470512183036,144.4631792220765,2.2661957069442824,-6.761784565801731,6.883579021155699,-1.9923405710249713,2.1624483047362175,0.14480044142534096,,,none
1.1219360000000016,-20.59988213589708,-0.5253812162117794,149.66590861257046,-1.7303100259184068,-6.213104225035412,-7.086435273388058,-2.5804135575304477,4.216937633688811,0.9271470092511694,,,none
1.1318769999999994,0.6375638746662354,-5.187075254955979,148.00222235242663,-3.2508283890999623,-5.471712040648104,6.625562351896317,-3.157398070066481,2.987887171994826,-0.11715757309834837,,,none
1.1410579999999975,16.724087255002498,7.260877549037852,140.51205682576116,6.104837558303303,2.0197175149360773,-6.069349904218171,-4.068262771736295,-0.12482300822235645,-1.542292529092244,,,none
1.1506739999999986,37.37432350242566,18.91953143097242,137.25781152139754,-6.564459501699428,3.8483933477807755,3.7726217659336827,-4.5598681366307945,0.9136244848567383,-1.5806341047464962,,,none
1.1601749999999988,62.12152796953739,33.866345743895565,148.88354244051834,-4.091734566968246,7.673737250417186,4.080027466556385,-5.319479348519116,0.3187748495134573,0.07682561711920458,,,none
1.1695910000000005,81.37425406763846,38.72164901039972,168.0205808648506,2.8845595563089597,-2.3743086716146684,-7.600428735715827,-3.2412627411741664,0.2454634017832658,1.5234167538734442,,,none
1.1792120000000033,106.80150441524852,29.52356812115345,179.1307940766711,-0.5170935094710158,-2.5652805266541305,1.0464674989933258,-3.979855868450961,2.2663011325106415,-0.6641321832421868,,,none
1.1885439999999967,127.88313667474294,15.811610654613597,-178.9569516306314,0.8362819249141742,8.75839076244938,-0.13214840667342864,-3.906783833407624,2.7074307091410375,-1.2531137221751203,,,none
1.1983500000000014,135.42138359331943,3.5338522522914797,179.51353841264782,1.311929611873225,-2.9795188438054434,-3.8455315590473202,-1.502675824068641,2.447623303992224,-0.5586768354062848,,,none
1.207809000000001,150.15729537813198,-1.3640625743875479,175.2117950997054,0.06814735262160974,-1.7389742353520954,3.0894405058574317,-2.903470023312975,1.110287220703762,-0.9118664388968096,,,none
1.217375999999998,164.50534447203887,1.3306006066954372,174.48414823794278,-2.0094981740836135,4.810295311173336,-7.012918394265523,-2.9095487342783235,-0.27654778478453523,-0.1440582787482206,,,none
1.2266450000000013,168.8388574989131,3.541602058439159,-179.46762812095412,-1.2106138200207013,-3.4524021002036247,0.07459915698981265,-0.885700243322301,-0.4045476105377203,1.1733280021086785,,,none
1.245901,-176.13243428804236,4.887524643752164,-159.53423993235293,1.7108501173652018,0.11813756866770382,-4.93465997249537,-0.9996095008290615,-0.3626947509948105,2.0673861134353713,,,none
1.255188999999998,-174.44879795101642,2.1530328216982335,-150.82446756822375,1.1971777521850213,-2.3252924355163107,-0.05531868665410655,-0.5357166044296807,0.3559760807899102,1.7226613617925552,,,none
1.2647689999999976,-171.04241367920318,-4.3830931240841835,-147.64922972510203,1.1977035246573626,-1.3310436715807088,-2.2830727868696217,-1.255584366502069,0.7753266596020811,0.6481269154172702,,,none
1.2744389999999974,-169.24706384604198,-10.912065995422516,-148.72352897953058,-1.106856709014678,-0.8092624326274303,-3.5337058025078463,-0.9919647750412801,0.9228503203902911,-0.1669831906370145,,,none
1.2838969999999996,-169.52024067791294,-15.423552136758495,-152.32961900072283,-1.6297221419140313,-1.6230462956386404,1.5128648170897312,-0.39812358795321573,0.8127339151562849,-0.7340803825228939,,,none
1.2932230000000011,-164.61953642887553,-19.269506691007248,-157.32480015351356,-2.55782301143226,-0.05990882535247142,-0.24960605423700405,-1.1752581103046067,0.298076166557357,-0.7065820436233274,,,none
1.3029210000000013,-159.39216263678503,-21.796162775996624,-160.62237818240038,-1.0427400458412697,1.3141194905309144,0.06847356020828023,-1.0962801708128715,0.12018365887226025,-0.2926014972893047,,,none
1.3123979999999982,-153.62567136196355,-22.519818345791283,-160.64795613904553,0.04373079182060083,1.397217512718194,-0.5400204715261644,-1.0567812596690433,-0.21797347168027223,0.4303289606397716,,,none
1.3218289999999975,-146.66830283599845,-23.905316576482335,-158.75691809708212,-0.22256663850808098,0.5979689378608904,-3.729162107313713,-1.297078356312064,-0.18427941602033274,0.927236126042606,,,none
1.3313570000000006,-140.45066833887688,-28.17552039770368,-156.99239497862624,1.3710033630899143,0.9449797328900859,-2.3144333401068744,-1.3582855621359267,0.3699464519145865,0.899450721016781,,,none
1.3408529999999992,-131.05982556548824,-34.46182008360162,-156.91292800304845,0.8242872640993208,-0.672259893204595,-3.430928216491838,-1.9704190936511814,0.526454215648863,0.9936463867920273,,,none
1.350520999999997,-119.8451037312878,-41.401623713957314,-159.9731852303329,-0.08745298647702156,-2.4541261494910773,-2.4711075762860775,-2.156129872634834,0.6367910598158908,0.770330022245625,,,none
1.3597959999999993,-106.32527124824153,-47.099062535094305,-167.59702492650845,-0.534819290160188,-2.1559881334017432,0.04382943758363685,-2.177223239713047,0.5480234476823811,0.36807023311984727,,,none
1.369645000000002,-89.61502696156157,-49.31008629955527,-178.02227925843206,-1.305196582369932,-0.8863456557036512,1.0729424794030296,-2.2630121565985446,0.15666471809387159,0.4139776217996073,,,none
1.3789920000000002,-74.56022419156119,-47.80735198639811,174.11725672556952,-1.5448856976932255,-0.6956046350438532,1.0465418266159792,-2.001093053167813,-0.23067975107806563,0.6899369206729032,,,none
1.3886700000000012,-63.47548665390791,-44.56216388980243,170.76703199150717,-0.588878810791699,-1.1750158835998634,0.976947010418696,-1.6077162214369822,-0.4397507127665117,0.9320958882466784,,,none
1.3978280000000005,-55.96544946037381,-41.66299998543526,170.88029163731682,-0.5181877171304763,-8.45260138407076,0.3244633823329953,-1.1762061490074214,-0.39716199035719835,1.0504211069592497,,,none
1.407425,-65.71110792335041,-41.30290653282569,174.2529356954006,-1.92834488757837,-2.691618761967579,-5.043271667195948,1.4396087911691442,-0.2603201904938192,-0.6181787439682097,,,none
1.416872999999999,-85.05804615554614,-42.2918251220252,179.04831658537466,1.2293779842544728,3.8688977002771994,-1.5142843339050687,2.89063395790603,0.027046970121160877,-1.6267777340001637,,,none
1.4263799999999982,-90.9224808597257,-42.471185087424786,179.2407368238428,0.3153595466438881,-4.939200906584844,-2.9708530206596233,0.8677401482135718,0.02292709919397611,-0.752951240760532,,,none
1.435965999999997,-95.5303728359566,-42.70109030127129,177.39426432411545,0.020065699642885095,2.6477387855624954,-5.0880113698153595,0.6804478552149708,0.026042574861733656,-0.9938844615456174,,,none
1.4453929999999993,-106.31598122615281,-42.645524586464894,178.73029815682636,-1.1637022560459749,-0.7892267608831378,-0.8291143701333323,1.5860502920746313,-0.06475195782075434,-1.196647633525243,,,none
1.4548980000000036,-106.67323363932461,-42.67500515343283,176.0218350428149,-0.8815497163495196,3.3135424561948574,0.12253815236364424,0.05283325406414895,0.003374493129451959,-0.5445389670249416,,,none
1.464411000000002,-105.02082751645156,-42.65644784582623,172.34707782840405,-2.941618607104646,-0.8181180998778823,-2.5220782915311335,-0.24235693708925013,0.02144652789978943,-0.46395871344383227,,,none
1.4739260000000023,-108.95878927746654,-41.51769734925526,173.85048525458495,0.3655823391385523,3.8026847544413975,1.0626177359211528,0.552569476572801,-0.29819411621116315,-0.15897742790871042,,,none
1.483428,-108.66242063364822,-39.95784673371518,176.88956494286938,-1.720586274426815,-0.391618074927751,-1.1582334491553279,-0.07135542581661419,-0.30740836267457655,0.7449724324636865,,,none
1.4930169999999983,-107.5344013018531,-39.374423343683524,178.30045860779623,-0.5422964150934332,-1.1302485335223573,-2.546240445115177,-0.17907981085936833,-0.10866268635391922,0.5231760602672396,,,none
1.5024610000000003,-107.56803682398278,-39.35565620739177,179.8894951285675,2.3581912794882536,1.7942242310684486,-1.2701216944619351,0.005129161098770128,-0.0038515263994402917,0.39852010086060335,,,none
1.5120380000000004,-105.09772544880092,-39.32633110935706,-177.99234424178323,0.522669845484559,-1.713877845213939,-2.2895778535170828,-0.3824849634584863,-0.01072859182393704,0.8256727344846215,,,none
1.5215759999999996,-102.34798905350667,-40.075580795361084,-178.74535863221092,0.6425570334369661,-0.5765656858881472,-1.6863794700537784,-0.42719124960150034,0.13935665063761069,0.28094912144844003,,,none
1.5311910000000033,-99.72214896681514,-40.994334942083974,178.7334472133847,0.6796232487877788,-0.19431396678188007,-0.17572253824426898,-0.39904119998055865,0.18500622580413734,-0.10241197102369434,,,none
1.5406810000000029,-96.72727346899403,-41.26863565139214,177.08563557368814,-0.37949523867732793,-0.04008047419668078,-0.19143661361768372,-0.4491165188866328,0.07254755789317709,0.12619842169733808,,,none
1.550186,-96.42189062011626,-40.85309646193363,176.97884580766322,-1.1966371589558704,-0.6753468069969566,0.6729660970406821,-0.05058941798844824,-0.08055093228958773,0.08703062390056389,,,none
1.5596920000000019,-97.17560330428034,-39.79621779982548,177.1355016212056,-0.4384413204639422,0.2655389846851504,0.5139198396281855,0.10335023613450724,-0.2175578471675665,0.0058200694978527475,,,none
1.568991999999998,-98.71505317981305,-38.31496286622598,178.4620412659558,0.039192977919959515,-0.432071047331603,-0.8279216501885501,0.2266814945417148,-0.3063454784721333,0.1538417787829698,,,none
1.5785540000000005,-102.12853724804066,-36.86483241889698,-179.20744272859073,0.512897780398383,-0.7660291373195315,-1.2888475067522285,0.5385608308560869,-0.2957172564427581,0.13306550941151066,,,none
1.5881289999999986,-105.11176399273174,-35.96238200941275,-178.08381739314257,0.9723980121567475,-0.24225604879065926,-1.7159145750049725,0.48422065077185805,-0.17084468473290304,-0.05300315367148438,,,none
1.5976370000000024,-107.37180190718205,-35.85465523628111,-178.32952384691092,0.9136486323188102,-0.4168983307400054,-2.17339916538927,0.3669676447854393,-0.011055380501018399,-0.25395623881657564,,,none
1.6071130000000018,-109.85410365127653,-36.255476452421775,-178.83560290921292,0.12810695981775963,-1.6539466965478875,-2.178283111502784,0.3998953075107574,0.08925167644178611,-0.342015460227595,,,none
1.6165819999999975,-113.54305161030022,-36.961453246925046,-179.6903072614348,-2.5499459932387234,-6.556193872524328,-5.05819243663839,0.5913096844872139,0.1478654278532136,-0.5705561848509474,,,none
1.626268999999997,-118.35622180604702,-37.82524294008854,178.78527993059905,-0.1917944511959316,-0.13356938920299105,-0.5956037172965553,0.7672791616832301,0.16583756439779831,-0.8611707778836687,,,none
1.6357469999999985,-120.2164791150082,-38.19719753773112,177.36003730291813,-0.8309830887192006,2.5658270034096113,-0.47887524875955,0.2958936463226106,0.06417211389017873,-0.48497070810012743,,,none
1.6451850000000015,-123.53648084018393,-38.35709477665857,176.0588371498362,-2.1049167829510655,-1.6982115487720033,-2.857297171680056,0.5228346413011417,0.0011435670209140102,-0.6347444296838495,,,none
1.6548010000000026,-125.1100281876007,-37.815204396863386,175.4786517761023,1.398819822389357,4.384502429814296,1.6885612740082665,0.2390444265179682,-0.12695775007108837,-0.26590283680773474,,,none
1.6642090000000032,-123.61584657758502,-37.35990732604735,174.5499386657678,-1.8139244287582892,-1.6070562150372116,-3.975929954507725,-0.24423682898186305,-0.06967139385072676,0.04720047025375003,,,none
1.6736309999999968,-123.04629390481905,-36.96130226247065,173.97309842370967,1.2248689196802882,2.4708383697751333,-0.43577571909093604,-0.09855486634526349,-0.07010775276747083,0.0036207174050592724,,,none
1.683200000000003,-120.23853940637446,-36.82833887147336,173.21691740899453,0.13428949441069368,-0.33933902967499324,-2.090558194859915,-0.4496742255029508,0.024738923029883057,0.23910923195491593,,,none
1.6927449999999986,-115.89685405754355,-37.2629327025894,171.73151167437643,-0.08791185036697065,-0.09623396296241593,-2.007338782592547,-0.6759944052277804,0.17862862409040497,0.2788902050397792,,,none
1.7021750000000004,-111.83858450651498,-38.0388393131481,169.97341053450694,0.5946173227456414,0.4340714520219527,-0.8617882940688761,-0.6098776317121277,0.2568275796939395,0.19188178192469207,,,none
1.711707999999998,-106.74969287959452,-38.64800651070958,168.44434753512155,-0.6483764137439494,-0.8067732527321837,-1.0476679552576424,-0.7614902178893741,0.27103778885276125,0.3776724781154067,,,none
1.7213669999999972,-102.2622503272304,-39.12061691680671,166.78071339994804,-0.44145604572408953,0.00525249636360374,-0.5299058050086048,-0.6621469751580843,0.2440391880159897,0.28832610751873466,,,none
1.7308959999999978,-98.67451409939319,-39.278032905000686,165.33614537280263,-0.0575207420350095,-0.37825384319206606,-0.20828052159776306,-0.5322627611708559,0.16591754224622,0.2178583082196594,,,none
1.7403920000000035,-95.40830340786496,-39.00403754589463,164.6784329673343,-0.009087008760831914,-0.07099800740895557,-0.5379558588543979,-0.5039225909811815,0.07945178349893808,0.3367472212706342,,,none
1.7497399999999992,-93.36108539848252,-38.55338396519439,164.18742203094084,0.07702640243964515,-0.929854728509772,-0.7265071665948073,-0.3320257022736985,-0.0002770954989895079,0.21939304100673274,,,none
1.7592279999999967,-91.86597253449672,-38.10270326090618,163.30944156496807,0.6801685908501264,-0.12999535039169616,-0.8562606045711548,-0.2507434065123703,-0.020306545952023317,0.06496029861315541,,,none
1.7687589999999993,-90.55988732973651,-37.81063127574711,162.18554560409396,0.4371110977355676,-0.7510069603933619,-1.1825474323767413,-0.21423429077955322,0.00582668541428096,-0.008048801793680121,,,none
1.7782700000000027,-89.84951786992191,-37.80712328611498,160.83077729327212,0.27855241723913643,-0.28490599030438957,-1.0398692722562366,-0.10671305107312186,0.03519800023214293,-0.1352453463842644,,,none
1.7877309999999973,-89.22914123488759,-38.027282777704094,159.13795797124803,-1.5003494974302676,-3.699530426128644,-1.2383922217100847,-0.07684912440030374,0.07508897236524673,-0.22204110333046365,,,none
1.7972360000000016,-91.25495288064953,-38.42477607597248,158.28038185803075,-2.895024624756401,-7.222333623434807,-2.687762257976749,0.3257239824460141,-0.04206479429278772,-0.3865445854216079,,,none
1.8067359999999972,-97.8684819238859,-38.73356480611559,160.63933430928589,1.8125951557332154,2.4676087815739742,-1.4504758043162556,0.9902487530250791,-0.3071311910041248,-0.3112752098467538,,,none
1.8163820000000008,-103.50800049799636,-38.532505296682416,163.52686046667586,-0.6768670972704002,-0.9966974355478155,-1.767642917260346,0.8259328888043711,-0.31171260200881334,-0.06730140823887605,,,none
1.8258880000000026,-105.79435400590724,-38.58305781227842,162.3664367836611,-0.24646936446398401,-0.14931231366187103,-2.2127237203373884,0.34499611481285236,-0.09607386855340005,-0.4668206125004498,,,none
1.835319000000002,-107.2331630102202,-38.33806854651584,160.67960861694306,1.3098029251821868,1.9385014205114406,-1.4871172361758784,0.198232079834478,-0.11832369595731676,-0.4820235426991994,,,none
1.8448340000000023,-108.0705462387014,-37.34008180891049,160.7380893217044,-1.193488873835657,-0.13336187461879254,-1.485490521749544,0.05853581632905607,-0.23244392971445033,-0.049348094744606434,,,none
1.8543369999999975,-107.2499588842381,-36.62736402629264,159.90505081242466,-0.6422646440110552,1.6188934753057693,-0.6189621023916458,-0.17181239515180075,-0.08982321178980748,-0.021222210736218813,,,none
1.8639260000000029,-105.63368221338835,-36.35593886032678,158.77998943046725,-0.4268962943302375,0.12494784846490829,-1.3662428945967495,-0.26252012977794675,0.041416477144104666,0.009913558971549968,,,none
1.8733699999999978,-104.85277040359058,-35.916034578088926,160.3845024127481,0.230217353642169,1.3057686442840195,-0.7334645398632393,-0.14915603421969365,-0.03818265175605125,0.4603493885766443,,,none
1.882875000000002,-103.84020548748374,-35.708134532866836,162.62677029750785,-0.6604638240537205,-0.9500210619391338,-1.266167212210416,-0.16910624920329803,0.013108098552246964,0.6248927543813114,,,none
1.892469000000002,-101.86408042020628,-36.05063275596713,163.32580939640573,0.432986688828224,-0.0943482754477654,-1.3507437468916492,-0.2860744164495637,0.16013687971318732,0.42859475831613203,,,none
1.9018949999999997,-99.95075103260164,-36.570366000524075,163.64864782686416,0.8986783040865013,-0.5580775322683184,-1.4691285505024034,-0.2659874911223884,0.18808380931839128,0.34129590197896725,,,none
1.911404000000001,-98.42717828700664,-36.9165501511374,164.18575569138306,0.27945465615179105,-0.6457794534705918,-0.896556022125091,-0.21537890910629964,0.1347987304870589,0.34114593543791766,,,none
1.9209100000000028,-96.69587254928932,-37.052635186176644,163.53557173953575,-0.7692217893310309,-2.400673194365814,-0.8875845528953543,-0.25817894512059625,0.103693849343127,0.12776447316896947,,,none
1.930418999999997,-96.37634666303867,-36.879650397394215,162.44905863357667,-2.50812516365146,-7.297417703263341,-2.665960169403197,-0.0590418844753118,-0.018067432087269415,-0.13836601927536435,,,none
1.940025000000002,-99.85607856748106,-36.31987622981431,163.35989129327965,0.07596554935225118,-0.7092959815878257,-1.4943427262618125,0.5010847681197876,-0.272545612612919,-0.18525743070951345,,,none
1.9495210000000007,-103.31032930639944,-35.55772593396665,164.45120078317632,0.054336447356667636,0.28974254163563334,-1.24690899196459,0.494982937153522,-0.30294227973913546,-0.1338708810603784,,,none
1.9590520000000033,-105.03068829524378,-35.21454143272936,163.34790127896972,-0.3249063480474763,-0.6251670434491304,-1.7610034363985547,0.25047527012524157,-0.14438439988593257,-0.3756225442923849,,,none
1.968472000000002,-105.86529026892464,-35.113905568157485,162.03705858245087,1.0548406176103995,1.522082063522975,-1.533115768091124,0.12434037821323873,-0.060073443067489934,-0.3233568767908809,,,none
1.9874820000000035,-106.70715610040212,-35.18487032143153,161.95839540298172,-0.326629173865047,1.153625661619287,-0.8725708188116883,0.0011438804055050606,0.05092617943815537,-0.01666648499154036,,,none
1.9970370000000024,-105.55176426028825,-35.69542771180213,161.2616059330956,-0.35424671526314355,0.17643343879980286,-1.366438938490087,-0.14638984502514746,0.15664430356498518,0.024024939092017968,,,none
2.006504000000003,-104.75599920403751,-35.87976610075665,162.020801359219,0.07116163424482883,0.8306084024370489,-0.9016006483727075,-0.11093408316180597,0.07590490389367356,0.2788823631231462,,,none
