timestamp,roll,pitch,yaw,acc_x,acc_y,acc_z,gyro_x,gyro_y,gyro_z,acc_mag,gyro_mag,markers
0.0,-38.163968386318885,-48.00905174624792,7.835668925889025,-0.20593778734470058,0.013718828827490643,0.01744053623175469,0.0,0.0,0.0,,,none
0.009506999999999266,-38.0250901464409,-47.88569761477452,7.255565489450592,-0.20654400107162027,0.01602634309067248,0.0139278010946169,0.0,0.0,0.0,,,none
0.01902600000000021,-37.891979153423534,-47.77950012474705,6.670275003462353,-0.20627284605770715,0.016784946762133178,0.007496404333385738,0.0,0.0,0.0,,,none
0.028527000000000413,-37.7594871626764,-47.67982338484751,6.084158559179792,-0.206661146880927,0.023174370216672718,0.004267841996225742,0.0,0.0,0.0,,,none
0.038039000000001266,-37.63480890130253,-47.569751634861596,5.4805836227918565,-0.2033383186360063,0.025414246309586934,-0.003979661198354374,0.0,0.0,0.0,,,none
0.047551999999999595,-37.51843222374716,-47.44793345538208,4.9177917943049225,-0.19376406136270527,0.028490283312300784,-0.009554628149344777,0.0,0.0,0.0,,,none
0.05706499999999792,-37.4030795402818,-47.316406359649754,4.416172771562684,-0.18393563408519245,0.0337372444499001,-0.009437177199726986,0.0,0.0,0.0,,,none
0.06656900000000121,-37.28565985449135,-47.18041007907144,3.9218615022827628,-0.17216889320385406,0.03895200491526901,-0.009680781833588526,0.0,0.0,0.0,,,none
0.0760879999999986,-37.169805055881426,-47.05057787465068,3.456433139070911,-0.15791449347867414,0.03815478340184123,-0.011365998783010117,0.0,0.0,0.0,,,none
0.0855889999999988,-37.04383326932413,-46.93153101103116,3.0020803280359587,-0.14382669129840045,0.06004958154176523,-0.019325029731029637,0.0,0.0,0.0,,,none
0.09510399999999919,-36.9188029545651,-46.83203448751321,2.5494573764030335,-0.15039256789984257,0.038186726898727374,-0.008920134007066986,0.0,0.0,0.0,,,none
0.10461799999999855,-36.78855710541249,-46.74398713732607,2.049497701561215,-0.15734833678584398,0.036949392775547,-0.007685712616626373,0.0,0.0,0.0,,,none
0.11411899999999875,-36.66145801800744,-46.65431939539344,1.5517933078804895,-0.1713266066151263,0.03163617575673275,-0.008749685985007897,0.0,0.0,0.0,,,none
0.12363200000000063,-36.54354422768418,-46.55620814210587,1.0802089824481271,-0.185723860597191,0.027586067616064656,-0.010008274146182505,0.0,0.0,0.0,,,none
0.133146,-36.440124878548886,-46.443080714918985,0.6043680003587342,-0.19270188679870848,0.023088782790866604,-0.009620409670820894,0.0,0.0,0.0,,,none
0.14266199999999785,-36.34945774761303,-46.30551692765287,0.14798290319330054,-0.197903210565824,0.021825550678385063,-0.006455591504941062,0.0,0.0,0.0,,,none
0.15216099999999955,-36.26625180273781,-46.15448808266864,-0.3039403936303555,-0.19182623759300368,0.026006593663145196,-0.0026454084019124314,0.0,0.0,0.0,,,none
0.16168599999999955,-36.19969076611342,-46.005899619430494,-0.7177809278541369,-0.17477094988257907,0.02646065833103236,0.0006755103840131887,0.0,0.0,0.0,,,none
0.17118599999999873,-36.14295068111197,-45.875302655100484,-1.1219715619472472,-0.1523697931314471,0.028895970223259994,0.0038642208415162896,0.0,0.0,0.0,,,none
0.18070699999999817,-36.08827282611708,-45.76771942124426,-1.5334685737166822,-0.13382909380224223,0.03329342586744966,0.007983785617711354,0.0,0.0,0.0,,,none
0.1902089999999994,-36.035727936100606,-45.687902180666065,-1.945106946158335,-0.12201126758636516,0.03650073433879755,0.008551872519914246,0.0,0.0,0.0,,,none
0.19972899999999782,-35.9824236701637,-45.627592112718446,-2.380360191974306,-0.11990143151851344,0.03875080379588439,0.0059378019484278574,0.0,0.0,0.0,,,none
0.2092330000000011,-35.922222173600616,-45.56706555901472,-2.806079271391367,-0.13083363175826382,0.040806726007234013,-0.0006401940378548685,0.0,0.0,0.0,,,none
0.21874199999999888,-35.851418533316064,-45.49765870790357,-3.2294024663650203,-0.1458793232482316,0.04366036190284888,-0.0056762593101544745,0.0,0.0,0.0,,,none
0.22826299999999833,-35.77409351690405,-45.41072014451457,-3.6332562056653397,-0.16002766250736428,0.040339905640383596,-0.012281868883402151,0.0,0.0,0.0,,,none
0.23776499999999956,-35.68937451262169,-45.30580383982704,-4.017884314322655,-0.16907627039866333,0.03439990124464106,-0.015211122133798327,0.0,0.0,0.0,,,none
0.24728199999999845,-35.59961269417666,-45.18454510802955,-4.421037881064444,-0.17339536810065917,0.029009079549358486,-0.01013744207605364,0.0,0.0,0.0,,,none
0.2567929999999983,-35.510679090081766,-45.06160724468212,-4.807601968111078,-0.16312834671339432,0.02249947531720181,0.002729933773405887,0.0,0.0,0.0,,,none
0.2663000000000011,-35.435158052353884,-44.94399374354135,-5.164732954730377,-0.14691300729852824,0.013167213786396393,0.018552542484370695,0.0,0.0,0.0,,,none
0.2758099999999999,-35.368861566611024,-44.83844750340549,-5.520382534942673,-0.1312657486142056,0.012460734801812475,0.037157174827400795,0.0,0.0,0.0,,,none
0.2853129999999986,-35.315406206321505,-44.75309034614095,-5.893515213980092,-0.11772711970028617,0.018439132286982872,0.052281169226881724,0.0,0.0,0.0,,,none
0.2948139999999988,-35.2789962620977,-44.68785653322446,-6.25269598968649,-0.10971234276457445,0.0222377037539259,0.05678428983582735,0.0,0.0,0.0,,,none
0.3043459999999989,-35.238023248258294,-44.62864802248593,-6.606157845864023,-0.11610419501014413,0.03530378520679762,0.05317062497275205,0.0,0.0,0.0,,,none
0.3138450000000006,-35.199228159572584,-44.57223382121196,-6.963658555955682,-0.1257142588848236,0.03975542345516488,0.04002120193160546,0.0,0.0,0.0,,,none
0.32336099999999846,-35.14797840563982,-44.50906635380817,-7.317647680105611,-0.13613245515391506,0.04449646290554304,0.0282415431339745,0.0,0.0,0.0,,,none
0.3328679999999977,-35.074503597851276,-44.4291908137768,-7.693296347171805,-0.144546568942547,0.04708283162992616,0.019764166512839947,0.0,0.0,0.0,,,none
0.34236800000000045,-34.98279086453344,-44.340209562627,-8.065736699698466,-0.14380271686629176,0.04348423682927045,0.016334815540903644,0.0,0.0,0.0,,,none
0.3518889999999999,-34.86819585546246,-44.24746388889478,-8.428867647603978,-0.13792481283644104,0.0400210045461255,0.024507166313867325,0.0,0.0,0.0,,,none
0.36138700000000057,-34.73754388042522,-44.15583412008474,-8.804147561319486,-0.1290428943602196,0.03721747863544039,0.039484028494688184,0.0,0.0,0.0,,,none
0.37091299999999805,-34.59991183590327,-44.07150724232993,-9.188284506867232,-0.11831066031827638,0.0321853608932419,0.05205150803214992,0.0,0.0,0.0,,,none
0.38041000000000125,-34.4711643974657,-44.00702069863648,-9.54414398700164,-0.10362825133394749,0.024124537358526047,0.06100287220898449,0.0,0.0,0.0,,,none
0.38992899999999864,-34.35427382665747,-43.958748978587735,-9.878095686578103,-0.07818583206732843,0.014782067443986417,0.08250830737444266,0.0,0.0,0.0,,,none
0.3994420000000005,-34.24825198823828,-43.92610954945242,-10.213903710268172,-0.09389285814582154,0.014136241478650656,0.06119421597497059,0.0,0.0,0.0,,,none
0.4089539999999978,-34.15637944711133,-43.913778326752755,-10.536017673925205,-0.09055331477957473,0.008501694259025049,0.05308423649887027,0.0,0.0,0.0,,,none
0.41846999999999923,-34.06868927324067,-43.91237394490136,-10.86825587515405,-0.09244668608659443,0.003938365207439431,0.042490235251750476,0.0,0.0,0.0,,,none
0.4279580000000003,-33.984086770463826,-43.92492202619076,-11.211952544902012,-0.0900745587658789,-0.0032628058838692505,0.02983601357678735,0.0,0.0,0.0,,,none
0.43748199999999926,-33.90597684607315,-43.95214320495913,-11.539026384755068,-0.08690220260602084,-0.012136785585563166,0.02690976838958275,0.0,0.0,0.0,,,none
0.446987,-33.81474988457149,-43.983074136208906,-11.847506546440309,-0.08978159928773718,-0.005020794834892847,0.03828964899979787,0.0,0.0,0.0,,,none
0.45651300000000106,-33.72353920825343,-44.0120072499114,-12.136389247662736,-0.09818732162595525,0.006522177502583571,0.055621610854859165,0.0,0.0,0.0,,,none
0.465996999999998,-33.64034663659031,-44.03307064617922,-12.393182725632453,-0.10865916282493142,0.02243771079771618,0.06606986398281732,0.0,0.0,0.0,,,none
0.4755420000000008,-33.54030123816302,-44.02307557686853,-12.65808274703546,-0.1322847286105329,0.0714024103368449,0.08226701350492781,0.0,0.0,0.0,,,none
0.4849819999999987,-33.57050584420182,-44.15094668455232,-12.846264672461068,-0.14044734034324358,0.14964200489032203,0.07558145525381922,0.0,0.0,0.0,,,none
0.49447999999999936,-33.6908758000616,-44.2634265494371,-12.994881045574287,-0.05780893829859361,0.015437305089928908,-0.1314427885860008,0.0,0.0,0.0,,,none
0.5039829999999981,-33.873088590452916,-44.40536606599619,-13.109084274327477,-0.07181553793858177,-0.06375083480472246,-0.4677225019948961,0.0,0.0,0.0,,,none
0.5134879999999988,-34.1276571345823,-44.61637781556773,-13.194253553194562,-0.21387496063897682,0.1054758972209161,-0.4821320867991878,-0.04508032114227945,-0.0327662634917528,-0.0002774303225442412,,,none
0.5229989999999987,-34.34647876178888,-44.6745864934656,-13.369689184646708,-0.11660938858858252,-0.03756251719760564,-0.8912693608789483,0.0,0.0,0.0,,,none
0.5323209999999996,-34.74219373588659,-44.60324597831253,-13.581086025979946,-0.23022486906858117,0.09830482103129344,-1.0415770682073657,-0.051451115235377674,0.027110937195284703,-0.060850724999082624,,,none
0.5419139999999985,-35.375240207157596,-44.52653487596149,-13.723144521627868,-0.15164748386966606,0.01769942036392613,-1.0891845451161144,-0.0840592743356907,0.03639348795988363,-0.07482659964511534,,,none
0.551324000000001,-35.964153412270065,-44.255984121647586,-13.935285059929301,-0.07199501649081251,0.16764953973103522,-0.9634252568192545,-0.06871722671521865,0.07287845684608486,-0.07791306680565435,,,none
0.5608499999999985,-36.57603862117201,-43.76519119145305,-14.262419882571544,0.045854162289595136,-0.05033188992847722,-1.0223123522257553,-0.061269430338214075,0.11690027558689164,-0.10150989996809529,,,none
0.5703659999999999,-37.010478575090026,-43.34312286293417,-14.404341742463203,0.16573231762950671,-0.10284289662032818,-1.0272725075493596,-0.039967730228451036,0.09755849123596465,-0.04429918972956081,,,none
0.5798750000000013,-37.30925808489816,-43.070405236573386,-14.386814080772018,0.21545644976868925,0.15918544193500125,-0.8897476598039399,-0.028544424785015118,0.06377922288700713,0.0034128293176264395,,,none
0.589382999999998,-37.58792269141602,-42.85020986199307,-14.431125426273912,0.16723143561872095,-0.02709182637322209,-1.0491244401534918,-0.028484572940332735,0.05290932496213515,-0.007570691924743376,,,none
0.5989660000000008,-37.55950681780823,-42.76435106953953,-14.48414528370693,0.03864027416071906,0.007913930857503979,-1.1497194366378016,0.0,0.0,0.0,,,none
0.6083989999999986,-37.291742428749615,-42.79353963877171,-14.540360873238994,-0.043984630576286037,0.1719633155546614,-1.0927121377440683,0.036604213154099174,-0.0155769294363197,0.06124818296577028,,,none
0.6179859999999984,-36.86485834890079,-42.703540538598325,-14.765423326415089,-0.09530407201470258,0.0564621967363412,-1.0964628104666487,0.06528412444061947,0.0014775948280858447,0.040836624000761435,,,none
0.6274969999999982,-36.20325624067527,-42.46032499173001,-15.127758376947169,-0.09704975525265515,0.03899102120601398,-1.0621618187432995,0.10682608891393719,0.02174218569371542,0.04941548964877711,,,none
0.6371119999999983,-35.607700616581596,-42.178352273742775,-15.41549925020288,-0.029119976825212758,0.00914052994733005,-0.9136486630726082,0.09997143278257226,0.031085971246090242,0.05792167515096405,,,none
0.6466150000000006,-35.12973345739747,-41.82514906977568,-15.599220743910097,0.04870621275876471,-0.09251946113418152,-0.8343485884461201,0.08751072731626736,0.04898959387242605,0.06398235720600867,,,none
0.6561239999999984,-34.74437407565643,-41.439496628692986,-15.629594777991727,0.04246269319839862,-0.05103188656901021,-0.8443801603612799,0.07640381844553497,0.058738077889561195,0.07650427508870944,,,none
0.6656419999999983,-34.59877875085063,-41.1850560274802,-15.518151921016402,0.003436867883288747,-0.060844391141345044,-0.9015983920592443,0.03483930046623022,0.04313946171378019,0.07801185667422336,,,none
0.6751560000000012,-34.53596876503399,-41.03438448251766,-15.377633557313832,-0.06308720495641998,0.0145050329928106,-0.9383325736914503,0.01721102902552751,0.02652533158826044,0.07323408873425204,,,none
0.6844889999999992,-34.4343157519119,-40.878393408551936,-15.379763876578943,-0.13297734589041393,0.07490011138531107,-1.0392031025440465,0.023139738096883425,0.026004333736640448,0.045503668421344144,,,none
0.6940679999999979,-34.28314142660685,-40.736210745056724,-15.539506625435227,-0.14499967437163577,0.05701354372511669,-1.0937593754990138,0.0,0.0,0.0,,,none
0.7035049999999998,-34.02780680843826,-40.58719250914045,-15.795039296662367,-0.07323219620525259,0.07455662427001178,-1.0249531132247243,0.0,0.0,0.0,,,none
0.7131900000000009,-33.70500501982576,-40.34207382515283,-16.135807318468732,0.02069173646101788,0.03065408071792763,-0.9730478551745239,0.060807780855955514,0.03359799977335192,-0.0030355314038271086,,,none
0.7225140000000003,-33.374263982251925,-40.04813869127074,-16.36635750465752,0.0949769706038072,-0.033788201191193225,-0.9532747844900847,0.06505864063764777,0.042297973532668606,0.01280095971560397,,,none
0.732213999999999,-33.09226949559954,-39.78975931022996,-16.387481972388084,0.12670613012609408,-0.020657030483085,-0.9051331941883276,0.05615977215009469,0.03738361564783332,0.04852565562280656,,,none
0.7417249999999989,-32.861930983545086,-39.53961657458394,-16.277749793248205,0.08658897736703883,-0.01388302142469362,-0.9260339099422656,0.048191634989162103,0.03802977450360171,0.07469981817695658,,,none
0.751066999999999,-32.61912409095297,-39.2920263309224,-16.055204438971334,-0.014773078221460336,0.023005981091559904,-0.9991543621669796,0.04989918352760661,0.037121693660990066,0.09048307450393948,,,none
0.7700829999999996,-32.00855013793715,-38.886175003539755,-15.713512793515651,-0.13908080850461207,0.06522590022720463,-1.0274237217958633,0.06247727719044895,0.02464624345106832,0.07144000435577534,,,none
0.779592000000001,-31.567564044893874,-38.63609465874172,-15.82929214629938,-0.12625715529923262,0.04910195796401339,-1.0071414387947257,0.07987999743648529,0.02943371190117116,0.04342365742658564,,,none
0.789275,-31.11234821209954,-38.38703230174004,-16.028458761548077,-0.059373730195002576,-0.0007360165698922435,-0.9577007150658662,0.08227122709701705,0.02835738568909617,0.022926915248756667,,,none
0.7987879999999983,-30.70027493021121,-38.1599186458255,-16.18879670181098,0.023185417161957655,-0.03247865946062923,-0.8830860407175712,0.07484402683045785,0.025715111443598438,0.019001702883647352,,,none
0.8083029999999987,-30.374901427435585,-37.928509745193026,-16.261099087191603,0.06428641824825726,-0.047098337312496484,-0.872638827837597,0.062205992118192964,0.03015218060969083,0.025671066689791276,,,none
0.8178020000000004,-30.15930216378734,-37.71405985459475,-16.178624066375768,0.04975786382314849,-0.037278388673843914,-0.9124966285855736,0.044734820473234564,0.03170407649847686,0.042983007720740034,,,none
0.8269409999999979,-30.018449399191912,-37.522644596879374,-15.95260080758632,0.0025044500693810596,0.016334031320503897,-0.9492236156095943,0.03207105414165766,0.03064483234528172,0.062467628175853065,,,none
0.8366520000000008,-29.877233771647685,-37.29717673328183,-15.696533921102976,-0.056241743576032066,0.05837464714338858,-1.0036253138287765,0.03391758074865776,0.0373078598363073,0.06844644973221872,,,none
0.8461779999999983,-29.657396851799135,-37.023920402480236,-15.510768485222654,-0.0920120739588004,0.0780377125829182,-1.0448280031653565,0.04850135738060736,0.04325865570984722,0.06378131977332355,,,none
0.8556740000000005,-29.33214906828824,-36.73894015676679,-15.376653304143018,-0.07925025720465244,0.07986824529694841,-1.0205980254321414,0.06538103298089865,0.04116127100922052,0.05422788832073553,,,none
0.8653620000000011,-28.922156429752448,-36.447944305588685,-15.352395819135438,-0.7111623857618342,0.9860199951970473,0.2409359621151722,0.07896610999933788,0.03876341204633055,0.040413928272694646,,,none
0.8748779999999989,-26.009718699965532,-32.01536797412986,-15.186991469046612,-3.817824598187667,0.5624627019810495,5.752198406181421,0.6992710349692605,0.7286098979739933,0.3731698051785063,,,none
0.8842099999999995,-24.56627787641426,-32.10066977917676,-13.771368708416778,2.9007134652038187,-4.249429019304167,1.3173099826070969,0.2328579572202168,-0.07789973007605178,0.44854862497663756,,,none
0.8937899999999992,-10.005715416523856,-27.204807710158626,-15.387583496407633,1.1409133499101511,2.8676412430082063,-3.3729027604717374,2.697759294706813,0.3025539966015541,1.14609358360622,,,none
0.9034019999999998,-1.621011289438706,-25.1663024674509,-17.862051495916337,-3.2383671613335987,2.1333025978939544,4.087354885169257,1.5598847736568533,-0.04128370999630666,0.25566418962248355,,,none
0.9128119999999988,0.8316097223266371,-28.011035634454036,-20.636872627604074,2.4389538205206662,-2.0915240013705083,-7.003200951603524,0.22770460232775103,-0.6821690366563959,-0.36347410390824497,,,none
0.9224189999999979,7.594467578693488,-26.834064550882697,-22.43829186915519,-3.2720265532936437,-0.5384851295272317,4.6427886827445475,1.2044947555167789,-0.22109906261482956,0.2409651067617684,,,none
0.9318379999999991,9.764778991017891,-18.483767571398346,-22.543975820174897,-2.7949469596359857,1.8283818144303523,-5.541324007220599,1.0117222935618195,1.389969137629139,0.16971027880699244,,,none
0.9414440000000006,10.046838877613219,-16.289407001513673,-23.44095753760064,-1.3145881424976198,-1.0702565154382064,0.7900456779561918,0.22151337241285018,0.38323178471976854,-0.14575166084648764,,,none
0.9509499999999989,10.580819148627791,-13.04002434357453,-23.090842136911075,2.338063362743088,-1.72860970209639,2.0051795442139695,0.3522096738683971,0.5566915502969788,0.10532422159998327,,,none
0.9603560000000009,9.517678433740372,-5.494564034984041,-21.209233999487388,2.10986121675055,0.041490843723605626,-2.261399148262094,0.3772510936517937,1.4779323924945473,0.37860153588445217,,,none
0.9698740000000008,8.081747467708361,-3.8176217162110064,-20.200362734449655,1.0404358775898628,-0.47768570984722,-2.408848611061783,-0.1489200860737493,0.41552815457666925,0.20258272389425558,,,none
0.9793139999999987,9.693734109867032,-5.46307214519517,-19.700429912693508,2.114696408253453,-0.1404631935346152,-0.49157594521088116,0.19017709192847465,-0.4193430381581359,0.1161922215961254,,,none
0.9889960000000002,10.65491297093927,-2.840967795476627,-19.00363503879322,-0.9885170183035951,1.2196670298170882,0.7450911934082451,0.3550777672089922,0.43171304142481176,0.15341714580838028,,,none
0.9984070000000003,11.268719198287215,-0.5421697182550865,-18.94266821124001,-2.7899850600550273,1.6112301693964253,-3.780946339632153,0.2658163429274365,0.3953096628870471,0.015832406028245028,,,none
1.008023999999999,14.409752987949817,-0.08804450319454701,-19.456073127769557,-1.0665194415771229,0.650884805270979,1.842518832249382,0.6238003137634854,-0.12096750312994613,-0.09930774776999228,,,none
1.0173640000000006,16.839551999233965,4.483015679993241,-19.01348557886031,-0.19667671949110857,0.3920742695769328,-0.8053496709066877,0.7605776212237748,0.7037964762130838,0.06989339726114709,,,none
1.0270319999999984,20.122001908952665,10.917138191354068,-17.62857120645833,0.09881012110440195,-0.20282900993712438,-0.38012054973701165,1.024595780048129,1.016605988679432,0.21496029974777772,,,none
1.0364520000000006,24.423263718252695,14.311695827485675,-16.360217871509573,1.2140717599868496,0.1354248504372289,-2.053617393423807,1.0028000050746306,0.4029232092303593,0.09025216180889524,,,none
1.0458709999999982,28.973520079807397,15.796093951756987,-14.691058980639882,2.736320668921022,-1.416344775957039,-0.7296078631960985,0.9272349872390675,0.050014839975272,0.11463991112386997,,,none
1.0554880000000004,34.002358105420434,17.585995633409507,-11.729638767333933,0.39834355838958074,0.24621804252110308,-1.7848106370960424,1.0208824240627943,0.12766311559116408,0.3166778538653868,,,none
1.0649259999999998,39.15105485584224,17.620641781368917,-9.664965652928293,-0.778140340286311,0.439893346493883,-0.754005740998454,0.9667419659442414,-0.17574177228475812,0.10544532488487691,,,none
1.0745879999999985,43.28329362730694,17.072039845507014,-8.756414999130772,-0.9177582354744473,-0.7376217281717937,0.5943382502315266,0.7620328249936114,-0.2345211242486627,-0.07259672660215016,,,none
1.0839290000000013,47.196947258625805,18.811359323517294,-6.951736619170756,-1.708673220431161,0.29637006014579365,-0.4772320496815311,0.7860697313658476,0.24296732012248043,0.11978161066436793,,,none
1.0936109999999992,51.61133548705884,22.323427776992357,-4.610812154810271,-1.1896139719492058,-0.7964041754723485,0.41788948574897566,0.8946958004462341,0.6151572910058701,0.1763008002516015,,,none
1.1124550000000006,58.44844275485192,29.640923596287497,-0.655041098525047,1.5651482966443457,-0.9377724340379622,-1.5910728123651894,0.6045996386429234,0.6864774919919009,0.1373054626139631,,,none
1.1220369999999988,62.394256244819566,32.47596848993772,2.6682810774036505,1.1702873494731336,0.17301473547445323,-1.9739860774863305,0.667505311020068,0.5783170448711579,0.2877085805373488,,,none
1.1315479999999987,65.88379930628281,33.377760505248304,5.263532692384582,0.7188146694880173,0.4112679061265013,-1.8387710692341708,0.5727169881375519,0.22013846372776336,0.15912783348336432,,,none
1.1410659999999986,69.11636180882704,32.62080536898613,6.916014931104673,0.3728415715891667,-0.09764170060385838,-1.240781586364552,0.5557950073580025,-0.09307110552199536,-0.02170167106852906,,,none
1.1506869999999978,73.06879044133288,31.520706661542146,9.378292633210338,-0.3136151660111841,-0.316880189325176,-0.25999763332890674,0.6949818661443905,-0.12290845036081806,0.07265710421705007,,,none
1.160180999999998,77.18045314586071,30.844215076217154,12.61006149297278,-1.251520420957542,-0.25586775333118245,0.20210263683201932,0.7171513425527793,0.0014160542327922318,0.22060990247739365,,,none
1.1696929999999988,81.6090723944575,30.88530680735821,15.611763981890105,-0.8969936128976358,-0.4813177904477202,0.1597647290042462,0.7362040081797012,0.19312093897104732,0.15858652903611523,,,none
1.1792230000000004,86.69610464477185,31.855714523984847,19.2541261566,0.21789649923873186,-0.7194719943423015,-0.37256041463076683,0.77173088694039,0.4452777348655349,0.21277016831957177,,,none
1.1885349999999981,92.30816091226046,33.31296546308543,23.940556703708634,0.4841537960942615,-0.15705427645495632,-1.0292146493396281,0.7735138079843485,0.6188167746706693,0.35355817688227653,,,none
1.1981420000000007,97.82206377727292,34.54642471993752,27.938007785903093,0.7589053740056242,0.3996209468228405,-1.5248269986503593,0.7166481478470172,0.6214390083229553,0.2185272480634413,,,none
1.2076419999999999,102.74806347206635,35.082142780284144,30.78468146320766,0.9002240112503869,0.3299999359117695,-1.8489799189765888,0.653647674214123,0.4896579123981947,0.03278320224453653,,,none
1.2171649999999978,107.45314537278395,34.54117689160159,33.181623503988575,0.31245369670573725,0.18398538145286097,-1.4868271033895477,0.7134967082106769,0.3173913230058414,-0.044189200299343215,,,none
1.226583999999999,111.83861521560078,33.09469761837018,34.977058780236,-0.2985401830061964,-0.32318835075049873,-0.8596934897318932,0.7664331093469329,0.168691078735926,-0.12005058623093567,,,none
1.2361350000000009,115.78255115513171,31.233617592328233,36.38832539568025,-0.45805855576430565,-0.8903761258075699,-0.6599190712546686,0.7602014263132836,0.08737041602533652,-0.13792094773089336,,,none
1.245640999999999,119.88969148328594,29.149061638665216,38.49854213731684,-0.48692900791196964,-0.883174619573443,-0.5661075612820001,0.8179412811214183,0.1009216788597581,0.008768553529706473,,,none
1.2551619999999986,124.37083560848389,27.1072445076704,41.539686884170486,-0.1969388248201635,-0.8614110407409178,-0.7465802482591289,0.8687897303462868,0.19543140803471268,0.19784066850078885,,,none
1.2646270000000008,128.78672855731602,25.558618199437834,44.90063485345172,0.18578670666551336,-0.24475749942059405,-1.0006984130486611,0.7897803467519036,0.31649472520409067,0.28928619445772463,,,none
1.2741350000000011,132.97801343608717,24.45908438510745,48.18855270756858,0.6612864340011191,0.25048102251963617,-1.4501481949346606,0.6827840174277959,0.40070013124415865,0.303272439349962,,,none
1.2836369999999988,136.92632432043885,23.34462514417844,51.133035076998624,0.5478969933186194,0.5408057224107531,-1.3453462178478381,0.6380741424330313,0.4061231829854323,0.28255498238030863,,,none
1.2931600000000003,140.5758982634332,22.19154885957305,53.22426784936166,0.18726987987579838,0.37798982178901896,-1.094727677100763,0.5958024376196593,0.3901751139047594,0.15624191933397247,,,none
1.3027499999999996,144.0492400783616,20.926213424873566,54.37673086804202,0.06329773952333119,-0.17282907376877046,-1.1568993005061798,0.5866005541820791,0.3719443255695672,-0.009352056894960123,,,none
1.3121690000000008,147.38715166561607,19.014511865897152,55.14669667160262,-0.1276434630653749,-0.620099469874077,-1.0699276223006198,0.6751261484697131,0.2918396304616956,-0.059983863633313324,,,none
1.3216919999999988,150.70054197955713,16.3615923800988,55.97156661732713,-0.30219535697351146,-0.8272077067795197,-0.9202174737387037,0.7954673260700889,0.22072856382689895,-0.029662340091996555,,,none
1.3312080000000002,154.13107537233,13.470770600685544,56.90266636093926,-0.10892551175307676,-0.7014179153230082,-1.0335725414245491,0.8491689498108747,0.23300421042012728,0.015134630170667475,,,none
1.3408920000000002,157.63600587494153,10.751065485748434,57.96904051172594,-1.7951112673355891,1.2663982631176478,4.946591165607926,0.8282385449226882,0.28494887242404826,0.0761139043950065,,,none
1.3504059999999996,156.07442753643272,13.589554470524712,56.927092526130465,-3.2532738028901718,-2.7375872172297004,6.593354053505295,-0.6434721481954548,0.04813305865882535,-0.14264411023212248,,,none
1.359807,145.58704537612607,18.335025500593996,55.33248161216249,0.28832054966311904,-0.8377791783641876,-9.352714394258836,-1.9091872194621864,-1.1530604950271528,0.20500314279252993,,,none
1.3694120000000005,147.61081183549254,9.575104470748133,59.91367436013996,-3.23131079467431,-1.7373775247520382,4.235898122047287,1.6925236643794546,-0.6058904070453933,0.8053894878979698,,,none
1.378740999999998,146.86178661006895,5.745558960980456,60.32471315542944,2.4851857817247027,-2.1019569583810798,-1.7310555619756203,0.5913829100091352,-0.5101439531896862,0.07375377580468516,,,none
1.3882559999999984,143.51797249924167,4.447204893975756,59.28879818183853,3.1753545062005943,4.554654817173533,-3.603604789583911,-0.10981022020438345,-0.7072328403971618,-0.17827706560553622,,,none
1.397938,147.6313161121778,-0.5615030501746984,61.691630767908556,0.5480872053421415,2.8535847364275253,4.824723106751467,1.277925246306743,0.22320318130596065,0.4452487302496243,,,none
1.4073770000000003,150.25228332743228,0.35968716131513073,62.090096387434514,0.536453800532937,-0.24852710197689326,-1.892624967040757,0.0852486030692075,0.5496508557433379,0.10832185723921178,,,none
1.4167939999999994,155.36681646912518,6.537630038687122,59.315520538736024,1.1802878793517453,1.7779244450520617,-0.3847785988391885,-0.5735588822134726,1.4984349663559193,-0.5538243640917667,,,none
1.4263849999999998,160.55952201970433,6.827921979674253,59.132658693326775,-0.36137871371145663,-3.1801384154992873,-2.930053187075667,0.4808966520366755,0.9156204497868154,-0.09651728648090745,,,none
1.4358049999999984,165.08429077730312,4.452090623328253,60.322671143243966,-3.0585838951136255,-4.324570539125346,0.03741134727197716,0.8660945188353423,0.5374292967789267,0.1904850189418736,,,none
1.4454829999999994,169.34378924902072,3.9532762643351105,61.275349062887805,0.23614199212440992,-1.428176122459177,-3.716864247394571,0.5031274863353725,0.6929863680375211,0.1624063022909421,,,none
1.4548279999999991,171.12913355202764,-0.4615463852070865,62.49936715396032,-0.1990093667423,1.9392085970946957,-1.2942242532517654,0.9479117122892524,-0.10207088819155254,0.2534447507775646,,,none
1.464337999999998,174.56802538159235,-6.934572213509509,62.87759328004508,0.3498161089544961,1.765467975846713,-0.39085060859780374,1.4666250038441326,0.016345047742564678,0.1200563299429827,,,none
1.4738529999999983,177.6202815025293,-7.636359748946324,61.6047494760125,1.4462792886704996,2.7778962711393818,0.3605149099367427,0.4066413485845878,0.4709916801254633,-0.17728476265673765,,,none
1.483357999999999,179.388891162432,-5.912054238592653,59.55524686573579,0.7780569335822368,2.828619308046193,-1.768225908525004,-0.12796813762228187,0.47588565052115483,-0.36851324549164893,,,none
1.4928850000000011,-178.08868356933135,-5.741802867731094,57.62009063768036,-0.5170989741911863,-1.3302850764961582,-0.5648545684045638,0.2327778705723339,0.44656132392315934,-0.3361167224073574,,,none
1.5023799999999987,-177.06241106502668,-4.305870179735232,56.896204762262684,-1.3627095927809092,-2.600127373409415,-2.2220133299734535,-0.13088690337068817,0.3277494768668537,-0.11153407028951641,,,none
1.5118979999999986,-176.63125862267992,-3.5768631272980107,57.68506182877074,-1.144801956942277,-2.0098024902190685,-1.5051017354333431,-0.07618003144075107,0.1513869916283981,0.17863414431847088,,,none
1.5213970000000003,-175.81328424540538,-6.613467631421027,59.290208606624915,-0.6048299843274948,-1.3792465908718214,-1.8006445175404733,0.6035627173799851,-0.1788539422362026,0.34168809731636224,,,none
1.5309950000000008,-175.5623944326385,-11.025616241608454,61.152159348656205,0.1526065459962698,0.18650900296810674,-1.7072790348389342,0.7916704544329463,-0.39518452543960847,0.36647957712961293,,,none
1.5406130000000005,-175.48167037579447,-13.832864660810294,62.46404341620409,0.6713526592110812,1.5067601296596138,0.3470708133715015,0.5029999282393123,-0.2513316155257746,0.25268843730966256,,,none
1.5499279999999978,-174.51158519075375,-15.265869801912864,62.364104103602024,1.4864451467128408,2.7838574125751405,-0.5477949962843651,0.3413500438732811,0.03376863487503946,0.028785741418444782,,,none
1.5595339999999993,-173.0350713846287,-15.987256601229278,60.922149063111966,0.7689219901030655,1.185436376435283,0.45901395291212127,0.2623184141683117,0.18193789164707058,-0.20905555034262072,,,none
1.5689460000000004,-170.49252334725193,-14.873435377788129,58.910500200757404,0.07210967680713191,-0.40463883578366544,-0.8525941645168994,0.05304217321760287,0.5363880142202727,-0.2672485387827309,,,none
1.5785470000000004,-168.0703765084539,-12.933870608160657,57.03998997700548,-0.19848305012994716,-0.899681507964021,-2.2955135212939104,-0.07887757615150152,0.6051166538247533,-0.2322832534933521,,,none
1.587961,-166.1314062430661,-13.023943426767,55.73278790509012,-1.0267866930216878,-2.153899705485893,-1.385468951639034,0.22474000852425158,0.3048339348480778,-0.15168046239318153,,,none
1.5975730000000006,-163.68516892960042,-14.88433414534791,55.36619892182427,-0.8422658508249571,-1.6294015177683376,-2.212847060926303,0.5761574038596585,0.1808053722895983,0.06410325397394927,,,none
1.607088000000001,-161.63347233071863,-17.665427110605393,56.02620532881057,-0.1861563297267932,-0.4470347906335646,-1.5468163483152326,0.6821922106516227,0.011721105003112334,0.255997719935735,,,none
1.6165190000000003,-159.9216408529446,-20.886271686418905,57.02654058031015,0.5230716334815595,1.191446830940144,-0.9495874751466399,0.7163388088658724,-0.08591083901684321,0.3181904006247865,,,none
1.6262100000000004,-158.15717079217583,-23.77285494180924,57.575475677095234,0.7955824840094589,1.454316516054545,0.2928007032448829,0.6628698578037822,-0.03737347313413731,0.2509641339159899,,,none
1.6355369999999994,-156.04276502126558,-24.686004143082776,57.47339448179517,0.7609481234660509,1.385437812916586,-0.12160945049847122,0.3616228835767337,0.227333858692833,0.16517031221873238,,,none
1.6452279999999995,-154.0098343366997,-23.862427349347264,56.67870600269836,0.2530078829860536,0.3848559152902699,0.20373642336286568,0.06348117451082033,0.40102663171299535,0.020241009611912587,,,none
1.6642539999999997,-133.8281709893319,-23.35441772647932,50.40322223847298,1.34978306642292,1.742402186211125,2.5381323855627027,1.9402388447108663,2.3161850917028395,0.4268627437782696,,,none
1.673646999999999,-112.24385977564762,-24.94490818674015,44.9746742203988,0.40252611463410354,3.7840319746533617,-4.637229325794586,2.8943382345380093,2.6920232135245543,0.7716089184953642,,,none
1.6832709999999977,-99.90725268455796,-24.00712264629693,47.267925720427876,3.6005629207163983,0.6728746611186522,2.057736682159388,1.4294460764419428,1.7463635467347072,1.5522527137788211,,,none
1.6925989999999977,-93.04382762948117,-22.533381774229657,51.30807001924938,-4.626802307548158,3.7273577825689075,-1.2636037653587038,0.6014248595917088,1.1491492691990985,1.3726729954953312,,,none
1.702100999999999,-90.8387999676569,-23.347169360203072,53.92673933836991,3.873587676905198,-6.71853377364089,0.8802841063522149,0.3763540593029648,0.2241797353064868,0.6963181475459852,,,none
1.7116170000000004,-81.45598868640543,-26.41116471235273,56.30023040803368,-6.332605080353357,1.1787313363440344,-3.116101211063165,1.4774255647996033,1.0483780402303335,1.2646519046160407,,,none
1.7211320000000008,-80.1953079887514,-31.939624926285077,54.63837852373663,0.11000165116228598,-2.605191656603677,-1.8082440955218004,1.0368339034744725,-0.4457913796739138,-0.20937781019838608,,,none
1.730826999999998,-78.34033548506558,-38.01941033638814,50.075407497679834,-0.9019185812267445,-1.014276281391814,0.8948868217291925,1.1498944396810398,-0.5023798429867524,-0.6996702838817527,,,none
1.7401540000000004,-74.96969945758164,-42.56716902123692,44.10187666409411,-1.5400862465446037,2.0972148108253448,0.24541064641669427,1.0173764073475078,-0.24270983094056128,-0.7586411402185347,,,none
1.7593469999999982,-84.24156576902026,-46.1926695426099,42.91950905419216,0.6232651974172627,0.8576111410131525,1.5101636819637807,-0.516068320982913,-0.6668540420226651,-0.525041217154972,,,none
1.7686749999999982,-88.2183345244542,-44.790796659659556,44.92518379600252,0.8224061016137044,1.2006692779026928,-0.6670892535016315,-0.596605892760098,-0.18508589121507907,-0.16635864343694504,,,none
1.7782699999999991,-92.88703803811227,-42.807163277060184,45.730070041271205,-0.7318929635368686,0.7957551884786582,-2.710313441830168,-0.7565925958226506,-0.20073144868049458,-0.4859081976766915,,,none
1.787779999999998,-96.59973862999693,-41.68083349810269,46.15482852323246,0.1767797493114997,-2.2031698822956582,-3.2108170320253007,-0.5446584512128863,-0.23869859539150465,-0.414722746282195,,,none
1.7972979999999978,-96.81713852954229,-42.31876145110372,46.34877636381184,-0.5249789596361392,0.22343551795260527,-3.8228075800964705,0.07053503725116238,-0.1112883203896388,-0.12137066250342471,,,none
1.8067969999999995,-94.1724910489748,-45.20228684139172,43.44436788040273,-0.369194755980927,-0.5446572776009374,-1.9550316771984688,0.678980010617281,-0.13581808942303114,-0.32090813731058476,,,none
1.816406999999998,-82.24201185478631,-48.665395537713536,36.488089178686465,-0.5340003055583655,3.553741516232728,3.0905588032628244,1.6912340305377342,0.5218850459979782,0.3011381305608519,,,none
1.825917999999998,-61.31264200567433,-49.442788854118795,24.585195582780354,4.0064109523312466,1.9384270081216237,4.25523868815592,2.436184878085404,1.2589804527795407,0.7933805607923782,,,none
1.8354199999999992,-53.22384896398546,-48.66297363898285,23.756672538367045,2.1171952908701206,0.7075069893936803,2.9428674701222137,0.9043926250924518,0.5767361132405624,1.0574952117935232,,,none
1.8449530000000003,-54.12193586799995,-48.68758130060314,31.466221498579294,-0.9706741364818827,0.4908264048133823,0.3633303539046132,-0.1028918045001333,-0.05957350345293112,1.3773192951108262,,,none
1.8542819999999978,-51.861707273070984,-48.46623941150643,36.17945090500116,-2.863882953444624,-0.8642160636919086,-1.4452136459349987,0.22419077421493364,0.20356930535129727,1.2829561313051563,,,none
1.8637759999999979,-42.44604183102116,-48.46840575343228,34.376517525415686,-3.6781416506699145,-0.07078167084211569,-1.7729079711660936,1.0203817988696386,0.7213570663773011,1.0505864977043111,,,none
1.8732979999999984,-30.881826083559044,-49.54570235297819,26.881782973768754,-1.09736092422307,-0.028628024357423825,-1.5267988692582237,1.4150844530959836,0.5882795193625318,0.2492924412855388,,,none
1.8829759999999993,-19.382715244794287,-51.0171694689134,15.64090054139823,-0.10414053389577599,-0.3557258513830853,1.1887133562318077,1.4762230702136117,0.2596343314507605,-0.47644342141813295,,,none
1.892506000000001,-8.295672991406255,-51.02792729462292,3.7021455503527045,1.9068121886602913,-0.6861517265230648,0.9930369855768393,1.3756914031961291,0.2322785497802268,-0.6617313924242474,,,none
1.9020149999999987,-1.044082732224032,-51.03382064683909,-5.098858683032633,0.39457520443503213,-0.6231514802700979,1.051852133153317,0.9127535197159637,-0.012301348204697029,-0.632363525484354,,,none
1.9115199999999994,1.9501955297118092,-52.48961479471579,-9.548762735921574,-1.6405983510154796,-1.4132222946649358,2.8743041983399067,0.3308780629755504,-0.33633274862390516,-0.41993570734289837,,,none
1.9210320000000003,1.662227729943326,-51.9340963398004,-8.873687299993435,-0.991756244787009,-0.1490045428336683,3.00105021230334,-0.01706761749497787,0.11544671630464122,0.08959687375047391,,,none
1.9304339999999982,-2.88052251805161,-48.964796889457105,-4.793411984093538,1.0725030616389128,0.11706302088116854,-1.66680046408184,-0.5057331848768034,0.657718724510487,0.06609631342376891,,,none
1.9399510000000006,-7.629458408107299,-48.29688878363791,-0.27253384867037345,0.11357694959678183,-0.10663140745734528,-2.0569408620596588,-0.622070200653742,0.16017709802163604,0.15114489453259367,,,none
1.949382,-9.375922836706897,-48.82907822792916,2.7871704718555335,-0.7998551820333564,1.4106621384797113,-0.8984299082754393,-0.22876716291350105,-0.1121134896788099,0.2991107277677535,,,none
1.9588910000000013,-8.74892015915872,-46.986770051221725,1.6077457822595618,-1.1062201711978867,1.1572546775002588,-1.6718324842145122,0.06919111156723827,0.3719632563471623,-0.18960144945567478,,,none
1.9684050000000006,-4.919920814739386,-44.80282417283322,-2.9830996544032513,-2.014954200558917,1.3190983182570903,-0.9504798618766969,0.5380064693394238,0.4316107296633118,-0.40908940111429026,,,none
1.9780799999999985,0.3062270980158915,-43.55110255109686,-9.296941739733462,-1.3690131443164042,1.5126197483657449,1.4303719838090205,0.7724762901903873,0.17062348583831657,-0.5905522313078159,,,none
1.987600999999998,4.968840225104232,-40.52519163174332,-15.479138503601947,1.549934112701529,-0.046625935959180284,0.23014258129277812,0.8060443278661168,0.44473600414954045,-0.6708311321759943,,,none
