timestamp,roll,pitch,yaw,acc_x,acc_y,acc_z,gyro_x,gyro_y,gyro_z,acc_mag,gyro_mag,markers
0.0,-57.294376981888384,4.2147867922232525,3.06888269798774,-0.0407927481887702,-0.02379991399958223,0.03679692743000349,0.0,0.0,0.0,,,none
0.009508999999999546,-57.28608420098829,4.224788581169543,3.096386287244514,-0.04434926489593284,-0.023405074849179607,0.03610868628981724,0.0,0.0,0.0,,,none
0.019016000000000588,-57.29245194588238,4.2402494845532255,3.1273016009710237,-0.04832749581286194,-0.022827799321237595,0.035145385719953674,0.0,0.0,0.0,,,none
0.028532000000000224,-57.308114261250246,4.263798511590325,3.16163879839649,-0.0515372770595729,-0.043502850532623795,0.0169610626335705,0.0,0.0,0.0,,,none
0.0380439999999993,-57.32211999164091,4.28979732453112,3.1964123016637833,-0.048956036090065526,-0.041308381137009485,0.017136234081177263,0.0,0.0,0.0,,,none
0.04756000000000071,-57.32216275363436,4.3125493456727435,3.2293937467809686,-0.0430698371358861,-0.019987989099537484,0.030734247882706157,0.0,0.0,0.0,,,none
0.05706600000000073,-57.3075798403568,4.328860774253983,3.2586845494187355,-0.03875219146182486,-0.02051564600360912,0.03158019347932017,0.0,0.0,0.0,,,none
0.06656300000000037,-57.28100666975394,4.335582512256034,3.2877746577101137,-0.037256659115583,-0.022716237152800047,0.03498484867269332,0.0,0.0,0.0,,,none
0.07608800000000038,-57.243368305438146,4.332554460297832,3.319169231227605,-0.03786672932383432,-0.02509984949453132,0.03861509057501049,0.0,0.0,0.0,,,none
0.08560400000000001,-57.20652856075062,4.327568967531529,3.350811189590038,-0.04001435764104075,-0.027308811029510032,0.04193736000351349,0.0,0.0,0.0,,,none
0.09511600000000087,-57.17937292467159,4.331594004728562,3.3810021180210144,-0.0447106393250632,-0.030815022904257628,0.04724956618330085,0.0,0.0,0.0,,,none
0.1046169999999993,-57.1543059574584,4.349655787238583,3.4112704312265874,-0.049114460623697155,-0.03311666474882092,0.05069325146364373,0.0,0.0,0.0,,,none
0.11413100000000043,-57.12432643540325,4.3786412461886455,3.4454378711908578,-0.053086768209655015,-0.03530721725689775,0.0539577315434165,0.0,0.0,0.0,,,none
0.12363900000000072,-57.091573560908934,4.412550761213024,3.482053855588981,-0.05361118506914578,-0.03838104873143868,0.058638120292681735,0.0,0.0,0.0,,,none
0.13316000000000017,-57.052507947155256,4.449624930636366,3.514476888028137,-0.0513457178523385,-0.04159266462261703,0.06356400230482866,0.0,0.0,0.0,,,none
0.14264999999999972,-56.99792896022309,4.488350830512812,3.538746608442659,-0.04750081133088335,-0.043870825651279345,0.06703424285970057,0.0,0.0,0.0,,,none
0.1521600000000003,-56.94482325449053,4.526575931554116,3.5545486177179617,-0.04342316971164825,-0.04745609486238204,0.07252382812478353,0.0,0.0,0.0,,,none
0.1616780000000002,-56.8958904970698,4.555526099347681,3.568738820596535,-0.034952383781316994,-0.05047517975125317,0.07719372662278043,0.0,0.0,0.0,,,none
0.17119899999999966,-56.849863511389806,4.573687226938871,3.584288147642962,-0.026142284225157776,-0.05505729597421809,0.08425252831623428,0.0,0.0,0.0,,,none
0.18069299999999977,-56.79619957995173,4.584673522679777,3.598452121515996,-0.01762017799754095,-0.06145282598427542,0.09403611971859359,0.0,0.0,0.0,,,none
0.19016399999999933,-56.65031346058273,4.5741026831735425,3.617043867872892,0.01375871719109434,-0.07404611731726192,0.11324464884764622,0.0,0.0,0.0,,,none
0.19965600000000094,-56.46289061407121,4.559434670530751,3.639325527268077,0.01742434283795909,-0.09421271227932179,0.14306760825630724,0.0,0.0,0.0,,,none
0.20913799999999938,-56.2388153510565,4.5433950367298594,3.6622949427307026,0.02104404436107428,-0.09044354504552926,0.19158320232038034,0.0,0.0,0.0,,,none
0.21865700000000032,-56.00193808969215,4.529867706895363,3.6789124421565513,0.024147705306324634,-0.07489975530510218,0.24350515526995314,0.0,0.0,0.0,,,none
0.22815800000000053,-55.782265706306745,4.5146039000704015,3.696759291286989,-0.0020503254966951086,-0.0633362499704878,0.27699007488316024,0.0,0.0,0.0,,,none
0.2376649999999998,-55.61697297740379,4.497503327084286,3.7254577418811117,-0.01640743699231741,-0.048389280429778046,0.2921128748785476,0.0,0.0,0.0,,,none
0.24718700000000027,-55.53197800587223,4.495253028774441,3.757087654161377,-0.035427752257130685,-0.046962441516281116,0.2794649363463363,0.0,0.0,0.0,,,none
0.2566959999999998,-55.517494417263215,4.525087682754109,3.7889720839117014,-0.05508711217255817,-0.05619972271024668,0.23166685502206577,0.0,0.0,0.0,,,none
0.26619999999999955,-55.551963951435646,4.589030390517835,3.824093268792471,-0.07583417734307582,-0.03542241339475655,0.1748435727072702,0.0,0.0,0.0,,,none
0.27573300000000067,-55.623731010776844,4.683470758398664,3.858247090697025,-0.08676738736643032,-0.028258454708751032,0.10452796085074682,0.0,0.0,0.0,,,none
0.2852350000000001,-55.691785989819145,4.796824550517111,3.888246801688589,-0.08910723385685512,-0.023908480298757914,0.03379010628674539,0.0,0.0,0.0,,,none
0.2947419999999994,-55.724850931622775,4.9152280616946165,3.914313694976287,-0.07796807341263187,-0.03858587496094919,-0.01577575776368489,0.0,0.0,0.0,,,none
0.30433799999999955,-55.72534309954258,5.104971878321215,3.9298100397666658,-0.05824191084074301,-0.026908828979196733,-0.06965155536044333,0.0,0.0,0.0,,,none
0.3138450000000006,-55.63265516101883,5.269139693390787,3.9339077135017853,-0.03282292668682446,-0.019690875248688622,-0.07579160830643544,0.0,0.0,0.0,,,none
0.3233440000000005,-55.45169601886327,5.408050100386971,3.933429549147287,-0.004519812714691761,-0.017322438774002653,-0.06018236668836896,0.0,0.0,0.0,,,none
0.33287400000000034,-55.1964271484889,5.536730709622869,3.935779504212974,0.0,0.0,0.0,0.04990410513644466,0.03290950712082882,-0.004396553320169655,,,none
0.34237500000000054,-54.92591596782072,5.6767576203311085,3.943893733844298,0.0,0.0,0.0,0.053711768498094524,0.03711303479633552,-0.003656644783357038,,,none
0.35187600000000074,-54.711723620413075,5.830020923944072,3.9688807083385087,0.004160240556059079,-0.019345647995820052,0.027532853562461716,0.0486628894448195,0.03878395767255146,0.000701787233674506,,,none
0.36139900000000047,-54.56986577426012,5.992007668733113,4.021519343081668,-0.00011465821442037559,-0.02907339208281446,-0.020515055497587847,0.035271514720945175,0.036891636882327654,0.007603529324847266,,,none
0.3709030000000002,-54.57417231789215,6.16645126190242,4.093393207658916,-0.0002881025643417487,-0.05978462839894962,-0.042158832607507586,0.0,0.0,0.0,,,none
0.3803610000000006,-54.68667551093962,6.291741801429554,4.191067328251156,-0.04938740606203801,-0.12228218042376303,-0.154086719047637,0.0,0.0,0.0,,,none
0.38986000000000054,-54.93409930862046,6.388403024833506,4.3006063181045135,-0.08121281068851005,-0.19661307979449427,-0.2673489994223446,-0.05053299212445652,0.015654825114231472,0.027402656532427985,,,none
0.39935900000000046,-55.343866114663236,6.487415426846164,4.378990540299302,-0.159887005104073,-0.22009548190457895,-0.3772169862252779,-0.08279173813943252,0.013598016469667054,0.024893541805666185,,,none
0.4088580000000004,-55.97608510223114,6.6217733172606295,4.3959425816632285,-0.21897841992827818,-0.02070321989420649,-0.34048307599856026,-0.12744399788260424,0.017201682829933382,0.01784381819155867,,,none
0.41836999999999946,-56.92461016471358,6.808142701458218,4.308140791678031,-0.1882918239169356,0.09019481228052309,-0.5544160959814988,-0.19089681578753287,0.022894142179933366,0.004627617909821791,,,none
0.42788299999999957,-58.35231629760513,6.99718493782644,4.1002942626718575,-0.10045306780426164,0.06100394262284422,-0.7808225406923196,-0.2857925832758329,0.01694239390198502,-0.007257560735375583,,,none
0.4372170000000004,-60.01710845025326,7.132143745349691,3.819941690295417,0.07878760882241441,0.09695188276506526,-0.9549026568029465,-0.3318665802498516,0.004110808019305738,-0.015132840767772916,,,none
0.44681000000000104,-61.71800531129015,7.175026476641546,3.552288525544972,0.1641185971711668,0.15264083938111647,-1.1474622066108977,-0.33775348616800316,-0.013155334855169818,-0.011176783221741678,,,none
0.4563100000000002,-63.546671674627895,7.1021930666179465,3.3964977107131307,0.1981229930888209,0.04306859555232947,-1.1782008789279648,-0.36174264531846223,-0.03657060206451729,0.014309377354274448,,,none
0.465815000000001,-65.01627360880997,6.980509963390291,3.39921052684092,0.1472843096330752,-0.191496936062906,-1.217037979370796,-0.2900649709394422,-0.04162710942985906,0.036612594461327475,,,none
0.47533199999999987,-65.92319257794216,6.89439777083597,3.498884310016964,-0.0344859230189014,0.15265073284370845,-1.2523670701125236,-0.1788888957448817,-0.02805430827679988,0.041888361126916726,,,none
0.48484700000000025,-66.69991002571965,6.875475382170947,3.59738234747706,-0.14700810983224546,-0.06149904294836406,-1.2487844287092786,-0.15386315284827734,-0.013336427461268568,0.03836347570087439,,,none
0.4943609999999996,-67.00700851831198,6.959917288430863,3.638846478913843,-0.23774244558544372,-0.04824567770524519,-1.2168470073458126,-0.0619831737324373,0.013021195392971772,0.01570780274466176,,,none
0.503858000000001,-66.94175987232038,7.123200397595671,3.5739905127125438,-0.2322576378400815,0.08834091736239137,-1.1914672987225836,0.0,0.0,0.0,,,none
0.513364000000001,-66.73171618786007,7.3098017578499785,3.3867185732270086,-0.13905664133680104,-0.04908127809451915,-1.1047455061362936,0.03937601209900361,0.03982581416013203,-0.04277774368125642,,,none
0.5228809999999999,-66.24816437447934,7.470577309373068,3.1418656627124717,0.011907300632258132,0.03945664292647283,-1.04111508286752,0.09402255987801288,0.03760615018333045,-0.06147651537519555,,,none
0.5323159999999998,-65.75553157199073,7.546108530997759,2.92452061512371,0.13781806941173405,0.01008051440047446,-0.956732734526822,0.09685100977810666,0.020276755854709533,-0.056404819253477054,,,none
0.5418300000000009,-65.24151237522811,7.538800699936347,2.795023684236816,0.19548002177074356,-0.10557165139005446,-0.8970564518357099,0.10197077012493172,0.00362928817212545,-0.039436581000902984,,,none
0.5515150000000002,-64.6330333845913,7.48805047149269,2.7666400952061685,0.13661728612149845,0.0895093466872555,-0.883857580435447,0.12113439829882323,-0.004289119660973439,-0.021613212657927282,,,none
0.5610280000000003,-64.33056954936121,7.423272909775244,2.805356256832738,0.03444979597639669,0.1009208639737987,-0.8358820381161218,0.060607653153011025,-0.010035901215613902,-0.00010662388185015594,,,none
0.5705419999999997,-64.27675160634406,7.396220423377762,2.8666961170307244,-0.059456872714073135,-0.062129470449259185,-0.7933670587275605,0.0,0.0,0.0,,,none
0.5800520000000002,-64.26494093952724,7.448062324818183,2.891143821546199,-0.14710981515138655,0.09213410540944154,-0.7989421358854035,0.0,0.0,0.0,,,none
0.5895489999999999,-64.5055815100359,7.56129269191191,2.826806715635973,-0.14296985207283827,0.01985221918395163,-0.8389961556317318,-0.04883875119479917,0.02026031130632595,-0.006588629784693699,,,none
0.5990739999999999,-64.82916210849768,7.70748305924077,2.6752738496918664,-0.08223189812106828,0.017123623789758038,-0.9042507135118757,-0.06554078617447952,0.026154924332135013,-0.021732564244420036,,,none
0.6083949999999998,-65.20153183805368,7.835685588084997,2.4755016597686232,0.006856605800208783,0.06742819626959648,-0.9863495780993554,-0.07494985783605783,0.022324119504950907,-0.029916020796240107,,,none
0.6179120000000005,-65.62512572896829,7.903838826403272,2.2831480655455545,0.09802605889205805,-0.018847056481359228,-1.0433740037170436,-0.08450772769511343,0.010146714006549384,-0.026899992472514716,,,none
0.6274999999999995,-65.93517223387515,7.905700127989016,2.152870860652212,0.12419052479823159,0.025377161673980683,-1.082234759735018,-0.06145434221877749,-0.002006827142535292,-0.017546930062656993,,,none
0.6370100000000001,-66.19509088037923,7.854125735842965,2.106243074348032,0.09432295400877193,0.01774178969321209,-1.0762048439135337,-0.05113035433532365,-0.01223439369378429,-0.002201333829862675,,,none
0.6465220000000009,-66.35579919584498,7.7944217163269816,2.1281810254360685,0.020381197213266953,-0.03236520905911714,-1.0417216541018683,0.0,0.0,0.0,,,none
0.6559410000000003,-66.35844754704286,7.77520837139816,2.1724782481384106,-0.07704447384323213,0.039028552819334705,-1.0101552198996426,0.0,0.0,0.0,,,none
0.665457,-66.32900181284538,7.816887062391249,2.183572359844376,-0.13470417482845642,0.024250004030898137,-0.9737707878186053,0.0,0.0,0.0,,,none
0.6749770000000002,-66.24892523013345,7.920756446209514,2.1269077807300314,-0.13280033408782732,0.01843399101665475,-0.9489255489504856,0.0,0.0,0.0,,,none
0.6846530000000008,-66.15558320567732,8.057342002454256,1.998994138411724,-0.08186129097456186,0.047291935097971825,-0.936110848436604,0.0,0.0,0.0,,,none
0.6941780000000008,-66.1059019810683,8.182529545564691,1.8278246899119563,0.007386822748313585,0.006483356142773419,-0.9300905132385945,0.0,0.0,0.0,,,none
0.7036770000000008,-66.07161690727855,8.26224098783661,1.6627541995065307,0.08047860099210902,0.02512763586253054,-0.9317160103785309,0.0,0.0,0.0,,,none
0.7131989999999995,-66.10058571162888,8.279165095590349,1.5445579505648865,0.11317469764089844,0.015234403175569265,-0.9280102394096545,0.0,0.0,0.0,,,none
0.7227080000000008,-66.17247734964425,8.245498043364712,1.493481331085309,0.09178864743244598,0.005521940571172351,-0.922178540614786,0.0,0.0,0.0,,,none
0.732227,-66.27087637583341,8.194503588584038,1.4986996477207128,0.024474988633570248,0.030615482839240114,-0.9187087774085807,0.0,0.0,0.0,,,none
0.7417230000000004,-66.39729532826517,8.163433287880627,1.5267809851576697,-0.03641394199608762,0.5604733079976327,-0.6101101777664533,0.0,0.0,0.0,,,none
0.7512310000000006,-66.15057155233876,5.797235381674903,-0.4623731577474469,-2.2696779135728486,2.5803932702609527,7.420941290085003,0.05343690990690642,-0.47330177446623584,-0.40422336812005955,,,none
0.7606300000000008,-52.900611117853245,-3.1803557516977183,-15.439037077699952,-1.3013786634406113,-2.391140097802993,-6.711612193341746,2.388908361942614,-2.1457653532925303,-3.0397575675326367,,,none
0.7702500000000008,-31.696450589465584,-7.291813174450903,-27.863818489566224,6.870300810027426,4.895087631729706,-2.887189098220135,3.634902785709209,-2.319615990459427,-2.0708664205188905,,,none
0.7797689999999999,-36.97259188464443,-0.36018125322930894,-36.31533344484369,6.904793421861241,-3.816192537412387,2.1109970667864917,-0.15691708372469235,1.7369916792138314,-1.7594203301331257,,,none
0.7893760000000007,-38.071352889810896,15.216218667669029,-31.96038220406392,-0.7351710496941279,-6.432091355767876,-7.421235760697458,1.5694045784563806,2.70472553798984,0.8951023913062398,,,none
0.7986559999999994,-13.137892313013056,23.43488721115243,-13.236403377780588,-0.7662358080274666,5.7624152051517346,-1.356551394234224,4.977423672550505,-0.31681235214105474,2.0363035158723997,,,none
0.8083500000000008,3.791107930976276,17.57569395345914,8.558526764130741,4.63599486300982,4.805827701326413,3.1910087264947284,3.1344214844585454,-1.2967496210905436,3.1442374131783235,,,none
0.8273709999999994,22.36265179182422,13.09773822144426,31.353377458087554,-3.724691166442283,-0.48106971532406095,4.864844537292813,2.5289532624100124,0.7425475937967106,0.6347469887869067,,,none
0.8368839999999995,22.969080273892548,13.490086930536052,26.27416007486591,-2.7467661055832022,2.2164807519524525,3.5274490067932787,0.0657047442369691,0.1258201086810393,-1.044867556513743,,,none
0.8464489999999998,13.60253975592283,18.993929722549773,13.72620943030316,-1.5831084380847666,-0.6314847053746352,-5.142312475466719,-2.071029658222597,0.4176318012826112,-1.9805298510279479,,,none
0.8559020000000004,11.677694814287348,25.265445967852738,-2.0559213779236027,3.2400075133502697,0.8934340674026766,1.680560831060698,-0.48434426269487346,1.2162222103846743,-3.011241111820591,,,none
0.8653130000000004,4.599966308190667,27.99071358649789,-16.49334280009574,1.1939271826895357,0.6408661017135913,-2.5661781875867873,-1.1642267609682364,0.7431085207417825,-2.251983098971537,,,none
0.8749219999999998,-1.7017543517422833,24.88358222676372,-23.169350343406627,2.368605810790088,-5.180100517561847,-4.117793200582896,-1.2738584896171468,-0.20132184601369607,-0.7734488127239864,,,none
0.8842829999999999,3.282086424313098,24.75461316175102,-18.984335486391593,2.445357526625857,-1.398085736523708,-2.100348691043946,0.835822483548937,-0.34978527756558486,0.41862980095586066,,,none
0.8937799999999996,8.743373172897103,25.03408183275108,-6.492514101597054,3.180520172133646,1.7273634498143204,0.37195105234042614,0.9809861319502797,-0.16436777844453582,2.039264281922961,,,none
0.9033770000000008,13.18113891680567,22.897344228567068,9.617377548796597,-1.4579969239564934,1.2850268139729721,-4.265209763242329,0.8254144039106375,-0.40633776901077096,2.8628743373152097,,,none
0.9318100000000005,31.370083729171295,12.818619361308377,29.278145256608955,-3.627342934055092,0.640695112576142,-1.2989094978230544,0.565734527904592,0.09975750363274877,-0.34374801326658766,,,none
0.9416329999999995,35.71488738146912,14.880751198449513,21.534865243770515,-0.35829491140075015,1.2124578464473605,1.7911758832054032,0.5864992660438136,0.7358642648359663,-1.7577413547403269,,,none
0.9510039999999993,37.46870930599475,20.67998932107816,11.433253762146643,1.4691030616213674,0.35403264421322483,-0.06500040967341728,-0.008670065874390717,1.2099473050432599,-2.1279622075106923,,,none
0.960598000000001,39.776371126027456,27.83030709601451,3.295282945714159,1.7331217609061988,-0.8610408304079109,-2.1756494062965364,0.23482574553716115,1.4751814743539515,-1.8170354049141426,,,none
0.9702040000000007,44.9295038583499,33.00443136871934,0.2387254008654923,1.5893271860049716,-1.6721912448358602,-1.8880666571870919,0.8579845949112949,1.062558297470326,-1.1338314404598453,,,none
0.9794859999999996,50.956679821032694,33.4101981681242,2.775055662086048,1.207424876787258,-1.4999606318697238,-2.893756510186393,1.0070679023776081,0.10768391115966777,-0.1534109393758317,,,none
0.9891280000000009,58.81435717578185,28.49297148893138,9.53824949022938,0.8295671158584261,0.0008884813640091322,-2.5839149576474467,1.4470956315757617,-0.8324641987028407,0.5423638462598513,,,none
0.9985940000000006,66.51302167897987,19.489359682659316,16.388411392344914,0.48140570676636163,0.20518793566710464,-0.3724975097371536,1.77762413660286,-1.4379424623390382,0.7396521260847466,,,none
1.0081129999999998,71.48961594788135,9.70123568733776,20.22027679891396,-0.727695879720931,0.22375000720640165,-0.12417288090777472,1.5317711315141394,-1.556334369599254,0.5135402540114146,,,none
1.0177739999999993,75.53871561949794,2.937658960314459,21.136820168582926,-1.2132143892430691,-0.5035547253271543,0.2436648376012778,1.2323033248021646,-0.9817285058641607,0.093956444102004,,,none
1.0271349999999995,78.8254047147642,1.7099606761463804,20.577770163130875,-1.2935977099372407,-0.7915808234992292,0.235457711228539,0.70193413666663,0.00446476417054306,-0.13857611641447234,,,none
1.0366470000000003,81.61291575096713,5.953507627713435,19.372658188422243,-0.9865452367585731,-0.15840934194933942,-0.02119465911454766,0.23329233378672512,0.9886660978149704,-0.27844872864972026,,,none
1.0461690000000008,84.31835886462285,13.385040316037818,17.7840896045435,0.20105007009542203,-0.32102386359779683,-0.42941394425883944,0.032536477376179526,1.5804619519678338,-0.4086285413676662,,,none
1.0555800000000009,86.9395606365961,20.746251605862916,16.781706581317927,0.7082241461537088,-0.17713864995988207,-1.6814416740060742,0.04158507012779776,1.5562727183208058,-0.3545341837166631,,,none
1.0650720000000007,90.26225564122181,24.983997517580683,17.32445823863317,0.8012883419300162,-0.23989038304302818,-2.4186956864817666,0.3374066677943838,0.990743228891882,-0.14997489237172004,,,none
1.074580000000001,93.68843936896391,24.369756092216573,18.780381414394057,0.7541062297260757,0.11724986915206966,-2.336283259304346,0.6307307284517328,0.07627067176962929,0.00503559668943973,,,none
1.0842530000000004,96.8577576702672,19.10187278877099,19.619721552675387,0.7486482748695104,0.7923176434635346,-1.7126282102075023,0.9036070411234561,-0.8018873452066225,-0.06715823922146465,,,none
1.0937199999999994,100.61711682885833,11.103271998705699,19.311466214719566,0.6722644131356093,0.2761491788123439,-0.5112512224253011,1.2192035097488614,-1.2670578623215327,-0.2578416072369808,,,none
1.1032200000000003,104.56192025687189,3.2906045566426867,17.929624380618066,-0.08038863349869348,-0.18842923633692674,0.014706388738070383,1.2424662998099893,-1.2314476106959538,-0.3751351067543958,,,none
1.112736,108.72913176427964,-1.6529425574641612,15.871607670146336,-0.9376710126878139,-0.4807010119952721,0.018710802264883895,1.0861543073771829,-0.7040742201495409,-0.42353029598436265,,,none
1.1223880000000008,112.82914732525548,-2.356292948429953,14.200489888822016,-1.2871913061718434,1.1691342811650538,1.4000562825554554,0.8288444744338644,0.0768825450920684,-0.30572742321867125,,,none
1.131736,107.42539882033034,0.17895260996133805,15.870105553135627,1.524313890647804,-1.7662152892090177,5.45337296959546,-1.1763937384571876,0.20924203743541964,0.313420824382948,,,none
1.1412569999999995,86.58320960685803,4.9438757438404775,20.252477386643776,1.690544442497045,-2.5481822996931776,2.7184040600496773,-4.258479601873916,-0.3959571121383243,1.0537756383927026,,,none
1.1506629999999998,74.19332478136818,8.437400019165024,19.941755705760862,-1.6076840506310484,5.883898755545492,-5.408831635610474,-2.553497214603801,-0.19239200275054513,0.22709651766118913,,,none
1.162737,67.84598102621966,9.172426681868304,16.59057264838568,2.145425710459744,-2.7215414342363626,8.41350055176382,-1.238749831392795,-0.254051333547412,-0.47576500088984397,,,none
1.1698199999999996,47.29457525569149,8.255383408833781,12.990010202764198,1.4589940673430768,3.237219588319031,-1.8115750108319966,-3.885703948535601,-1.2137934925835956,-0.08992073304844539,,,none
1.179411,39.044052642315464,6.138563803876006,13.280038737812243,0.7746559750033607,2.6592178137163596,-5.7476667279986655,-1.4999745890180693,-0.7844880723906483,0.264933796100318,,,none
1.191396000000001,38.5801423937067,2.317341694494996,15.591810204796266,0.12980943183356689,0.624874074118601,8.406470187154435,0.10101375873405224,-0.7640707915114497,0.4695458971498825,,,none
1.1983630000000005,28.461972323774546,-2.7093521393771955,17.733301630852335,-1.0079732946093765,3.1485566550664705,-5.762468820222829,-1.6536615014999647,-1.5428234893536164,0.4204567469872427,,,none
1.207783000000001,27.05909462456936,-6.545516360571118,20.644304346875053,-1.0439457397591139,0.9707218516749266,-1.2929564567668477,-0.012024783960525554,-0.8174808603153456,0.5599353974408966,,,none
1.219933000000001,29.508727411906712,-7.714490787422561,23.14460956117238,-3.0080718961621185,0.7989731133440098,3.338694004651579,0.538894261934553,-0.035654688898128714,0.5613986864341239,,,none
1.2269009999999998,27.28088865236147,-7.942662091582429,23.12012076852164,-1.8885489632050707,1.2064255017338454,-5.105132166972228,-0.3884261650005347,-0.21560961943148244,-0.06565960352551016,,,none
1.2365049999999993,31.426464104911624,-8.87479185036621,20.881169609289135,-0.6235105652590851,-0.2419828359142083,0.15328470231297953,0.8312268014240587,0.13463711901869707,-0.3267002460285109,,,none
1.2460140000000006,36.23565465602528,-8.302075587828929,18.425612048850756,0.3168698113075708,0.41079110521869916,0.5010452975152253,0.8581185294110742,0.42815375250941434,-0.3475714376404454,,,none
1.2553429999999999,37.96170950803172,-6.277984573087225,17.290073507976302,1.4729786528210214,-0.6389019709341961,-1.488410354267901,0.20203263044513972,0.49083765235579174,-0.18346649433776224,,,none
1.2649260000000009,41.64653191519855,-5.608266955879381,17.26779593630942,1.141991950399649,0.26153753558160747,-2.1100804940476197,0.6608794129408394,0.3459544618842611,0.07193003503471099,,,none
1.274355,44.850723273649145,-7.665081235307315,17.58031833611523,1.3641558475294981,-0.7691461022236783,-0.43924892409832544,0.7313195388958063,-0.2019902644820096,0.13670415441523137,,,none
1.283869000000001,45.506302027774865,-11.146924596284824,19.034199307713372,1.2797197209319928,-0.9778248244225561,-1.3384482037438958,0.3419465373729426,-0.6211760902193362,0.31246823340382396,,,none
1.2934680000000007,45.74228772312628,-14.663548705771245,21.98789106796722,-0.13253312125557523,-0.5105744854097797,-1.3969465035194808,0.28988222493677857,-0.6433882853474417,0.6017658205752227,,,none
1.312577000000001,36.533026854863124,-19.20998306058587,24.63686609917542,0.41831932003924716,-2.554705405620739,7.10017431116334,-1.2199179297575828,-0.8249168529455706,-0.07337051633179338,,,none
1.3219069999999995,23.36746406477805,-15.512305083579882,25.54391374753059,2.9193689475342826,4.163585106211494,-0.7398837827199375,-2.5981870745822677,-0.34950199314239744,-0.16628798186852822,,,none
1.3409329999999997,5.318759188666148,-15.629839579256826,18.125898393774502,1.9096150202530071,2.0925064802440914,-2.33241840260858,-1.0257902023251175,-1.1534003405967401,-1.0669694619269368,,,none
1.353060000000001,1.9418656346310161,-20.02686826649691,12.524221956902819,-0.005776753235752886,1.766031763363656,1.485205437702839,-0.4032401099627724,-1.0135193012876635,-0.9936754999632774,,,none
1.3695509999999995,-6.4650137717808365,-24.231275811804107,8.94402431709283,-0.850944250773503,-0.7162513221347345,-3.7301864348812694,-0.6412273052163585,-0.5278375228136638,0.05783618069367085,,,none
1.3789859999999994,-9.26620418342897,-25.741401303116714,12.330984154477152,-2.2584468636697803,0.7234550342906256,0.21388675042852795,-0.45039634859568284,-0.3835451483002476,0.8247745476053691,,,none
1.3884919999999994,-13.10758643665372,-23.018823860221282,16.46260388519714,-1.4581378073982156,0.5610442657269037,-0.2581365608063446,-0.8080575341594717,0.3676384540911124,0.9037792026143594,,,none
1.3981840000000005,-14.092332006680579,-17.484082417346627,19.428033521288132,-0.8101819890293983,0.6852041631086006,1.5531595289960862,-0.5007915908193792,1.00602046587276,0.9097181202642919,,,none
1.4075120000000005,-11.399160723265922,-13.663617292266041,20.525693514113534,1.6033521980583705,1.2007718942260057,-1.9259996323180153,0.24087240530022397,0.8927851438174094,0.7195079732454444,,,none
1.4170180000000006,-7.968347672984173,-13.997335503126662,19.29736119148868,3.7285492750055966,0.558528292150825,0.06913031852403717,0.6520845570698571,0.15539961399968852,0.23396448481403626,,,none
1.426698,-3.623588452508737,-16.05497134270555,16.564395133920605,2.235847360561086,0.953493444901687,2.064910362616231,0.9244242824553351,-0.14465926682767916,-0.03501356054813943,,,none
1.4362130000000004,-2.611931571720383,-18.93060094990711,13.089123028257443,0.7206922681621417,-0.5863070859710592,1.299492209009287,0.32805673187406714,-0.5110949947125525,-0.361739012438992,,,none
1.4455530000000003,-0.8210209170872864,-22.420597852593847,9.579116388985373,1.2004465032364189,-1.7214971411485862,0.1833610647656374,0.4592268874452758,-0.6244363751378826,-0.3143459759991009,,,none
1.455241000000001,2.2778248357316944,-24.840376573360608,6.999902411977199,-0.945156180967818,-0.5622951755528182,0.7313488524029713,0.6278625927375501,-0.40439751021164305,-0.010789185270266403,,,none
1.4645740000000007,1.2307865130365974,-26.629338137802574,5.636770389386031,-0.8887495156927577,-1.5608975757828958,-0.7447108043689855,-0.15262026531697412,-0.3750518354265765,-0.09950830912878969,,,none
1.4740859999999998,-0.6666851523093674,-28.148762735988992,5.987595110769931,-0.8696563268588009,-1.4567721052639817,-1.4879524110878652,-0.3087618331286821,-0.33315476548903,0.16725354705918802,,,none
1.4837860000000003,-3.581373597335535,-28.952780630618797,7.653477102427351,-1.606128241520973,-0.4305708837049965,0.6028998177946797,-0.49256701574245365,-0.21461453352986828,0.3382245970635378,,,none
1.4932529999999993,-8.27448491907918,-27.982504569920994,9.587514889476079,-0.25382036917132333,-0.6790114948512989,-0.5210123478656271,-0.8448134705125097,0.07918283151665517,0.23852388000057387,,,none
1.5027950000000008,-11.655328810603013,-26.007958210187216,11.040141167501528,-0.35190799469961576,0.02980955567052157,0.3555884051948749,-0.6604124775748672,0.2896363343856826,0.28783386255161036,,,none
1.5147580000000005,-14.775593706607292,-24.492945673167316,11.620363907100419,0.5514390664250308,0.3391116460940739,0.09631212229555446,-0.6112087280459664,0.19409022844519977,0.1401644133578158,,,none
1.5218140000000009,-17.611016795809654,-23.685952145479554,11.27832489559589,1.5577720781165818,0.19163322165081673,0.2850453183639559,-0.5393149973126137,0.061881548960849,-0.026799333400100493,,,none
1.5313239999999997,-19.47582763796264,-23.506037571754145,10.25606390357584,1.6534500592866546,0.29389932278360614,0.44222768683455604,-0.3431534595327013,-0.024742695756577383,-0.10038764891258706,,,none
1.5408410000000003,-21.228163408791552,-24.548192759625792,9.230858410606261,1.2887225576537162,0.23962845586284748,0.48742239274331634,-0.28329945255238753,-0.2568373029712963,-0.1015244609346152,,,none
1.5503619999999998,-23.339793976642824,-26.43066541978551,8.588496621137082,0.7545793368457892,-0.15396194244551242,0.14355292677486606,-0.32318121805441125,-0.42806474996735655,-0.07020060271100234,,,none
1.5598740000000006,-24.955787597205372,-28.23869747025964,8.342256474756429,0.04555091007437725,-0.22866623901180314,0.12939009386207087,-0.23503371595223504,-0.3980046040155122,0.033096950571695746,,,none
1.5695759999999996,-26.637619258389215,-29.416250815783545,8.462696336732362,-0.7803744201284245,-0.13841990800496784,-0.19208028598120488,-0.2601174331349786,-0.2737679488502262,0.08912658182628476,,,none
1.5787220000000008,-28.920267913255238,-29.990743628988067,8.97447304872245,-0.8277134633647392,-0.6446824692125728,-0.624118400866238,-0.3766820188537921,-0.17007236702019612,0.10693864826944359,,,none
1.5882170000000002,-30.97075841878209,-29.75019302683762,9.683556082699132,-0.9939381992731589,-0.3132739569613916,-0.4922091161321964,-0.35918652699351045,-0.006524289415887815,0.17168199505808193,,,none
1.597918,-33.22728308522499,-28.610384116015663,10.175145345609302,-0.6837732144581127,-0.26238803295385277,-0.3481699984733538,-0.4262810077563864,0.16108941064455387,0.11162266507249989,,,none
1.6074160000000006,-35.2957203124079,-26.9012059352326,10.354240767818583,-0.17123144602196114,-0.3670166111549014,-0.29154610113644785,-0.41887253899161436,0.2755857898297511,0.07230146243715037,,,none
1.6195660000000007,-37.02027673078377,-25.228191035736586,10.515507410486114,0.26799069018285715,-0.03539864038210613,0.07397629449994515,-0.36329245772630275,0.27643657265164573,0.08274723546498829,,,none
1.6266250000000007,-38.758853826611826,-23.84890423874746,10.554446138196441,0.8814209141711187,-0.13535337162087077,0.3124728713131472,-0.359922734538917,0.2167545238180562,0.06473767860436344,,,none
1.6361159999999995,-40.06892052409946,-22.743518352317242,10.457522266994317,1.211597707621617,-0.24267508875211294,0.39294521891629947,-0.27571140167727537,0.17607529559445012,0.07636286629836522,,,none
1.6456409999999995,-41.188124104123496,-22.212101711865696,10.569775951068126,1.0005951126362833,-0.07732783902782746,0.3997841782280232,-0.2224339261831489,0.0686844158561897,0.1282367999863689,,,none
1.655145000000001,-42.83447941959712,-22.370386009254393,10.994064042144547,0.6545016004554154,-0.32940003660777223,0.19057289001340763,-0.29438389409733257,-0.0858254250634138,0.14436229058865546,,,none
1.6646520000000002,-44.521038456807396,-22.901120078416884,11.47525051942311,0.09979268150807001,-0.3493450336949461,0.16321036690538343,-0.2863181440890339,-0.16263953889739116,0.15159674807529308,,,none
1.6741159999999997,-46.25002926782059,-23.395543300449667,11.778880510510648,-0.5511033002570593,-0.15095662051383296,0.09327810469193548,-0.2931221168649562,-0.15873305648746225,0.11103188515147512,,,none
1.6836859999999998,-48.254176688430725,-23.60788059379691,11.88268211847952,-0.6913874376106812,-0.5025218447189786,-0.1297570994845413,-0.35236845731821625,-0.114240567906086,0.044010812972915536,,,none
1.6931919999999998,-50.13532599023884,-23.31715586693986,11.856516231140144,-0.773279124489411,-0.3677901231176469,-0.1933072416615155,-0.3501809352040556,-0.011387162494859982,0.023001423366805655,,,none
1.7027110000000008,-52.20149789493691,-22.43818027728057,11.72329541768303,-0.5019637712847201,-0.30697580486997494,-0.15356916728235814,-0.4082889795865065,0.09765352838355115,-0.003571679269161919,,,none
1.712211,-54.2762658767833,-20.951372802298533,11.567182835394602,-0.09640904976437846,-0.2837941409883484,-0.11340909673635594,-0.43640177999214824,0.2171125627492719,-0.0012390327730809982,,,none
1.7217249999999993,-56.13796866758728,-19.025793367246884,11.464059691467908,0.3145165952360959,-0.1323657821068583,-0.03922678514716238,-0.4177263346052799,0.3111783410613239,0.03640699492740926,,,none
1.7312379999999994,-57.71298547166024,-16.950206100742864,11.434143108123935,0.7017350560854112,-0.19540265313748273,-0.0698219731388462,-0.37363851929105873,0.35077323197269156,0.08230700411799843,,,none
1.7407409999999999,-58.92021869059531,-15.060362215070407,11.490888232462451,0.7917314262502789,-0.11773617807388667,-0.09826793678093622,-0.3003185070753733,0.3270464890413329,0.12708401885112333,,,none
1.750255000000001,-60.0249376173987,-13.700447249889958,11.665101893879006,0.6504062857171875,-0.20239544733387252,-0.11746463849638947,-0.26282670683872905,0.22574638733316643,0.15534275276872478,,,none
1.762226,-61.011858725641325,-13.021212314404115,11.989555388967505,0.3309524287455916,-0.2650580150475484,-0.07280025396892911,-0.21541263547740194,0.09514361450191204,0.1728795272827081,,,none
1.7692759999999996,-61.85778500787686,-12.880950188202188,12.20198349740963,-0.04867792434077676,-0.23267186052702635,-0.020891600520236864,-0.16732491854814074,-0.0060492062201012095,0.1529923051259478,,,none
1.7787500000000005,-62.70442910606549,-12.966426337582899,12.133575582342212,-0.36571098403499436,-0.34860302943480165,-0.020655112196657915,-0.15823041900932505,-0.05053713712899684,0.09630815022967937,,,none
1.7882800000000003,-63.62140164134504,-12.96474455586377,11.895037537052369,-0.5389297118556787,-0.3956669461487644,0.021137422226223855,-0.1752913457166997,-0.03582432917064755,0.05382167223434769,,,none
1.7977939999999997,-64.659618951696,-12.573228620593547,11.647225203528144,-0.4956051286438677,-0.4003656545653679,0.08157627504058892,-0.21424321692361029,0.03665556445760553,0.040983220628561245,,,none
1.8073139999999999,-65.77426769532828,-11.531687625225738,11.385796559133432,-0.26339115251667106,-0.36280495272456886,0.11492826653912896,-0.25450075002962164,0.16232412634024898,0.04209194392050783,,,none
1.8168330000000008,-66.88623792098967,-9.769750533599,11.130955308740822,0.04425158543071518,-0.2941932852091377,0.07768029495158794,-0.2815794101027817,0.30501027962249266,0.05031408667063817,,,none
1.8263540000000003,-67.93906160562166,-7.5105342145454195,10.95020770661772,0.2917448059309735,-0.28755995688790664,-0.02723055940096957,-0.28859989990028406,0.40588900414952667,0.07821768793247136,,,none
1.8358620000000005,-68.86229905831797,-5.155074189519106,10.930573349399042,0.4479312572151922,-0.23598227936754285,-0.13249896418369797,-0.2671785297197003,0.4298612196421955,0.12115739986205161,,,none
1.8453940000000006,-69.67424021248654,-3.0927885109150326,11.04744185979693,0.4402229298485766,-0.19905980848222365,-0.19990050751752128,-0.2356978952424113,0.3758071198642928,0.14582698438515956,,,none
1.8548939999999998,-70.39778409222518,-1.6033008377730815,11.099380762865339,0.2896740584647079,-0.23859526332262662,-0.21822479184764385,-0.1977130074943976,0.2660783882580632,0.14446428021680807,,,none
1.8644029999999994,-71.03359775231462,-0.8008298893362691,11.092673055061837,0.052829415213754505,-0.25648047324743556,-0.17860015697328005,-0.15501447851155756,0.13410202002400107,0.13360214332363463,,,none
1.8739290000000004,-71.63044068512465,-0.5684524791694071,11.032056255889767,-0.16596465484788156,-0.2964641069531384,-0.08826367681669986,-0.12606156862922213,0.02346797682765078,0.12019190488371044,,,none
1.8834409999999995,-72.21283832882426,-0.5578271287913366,10.894542468039097,-0.3078919123372237,-0.31631245528909474,0.00382651957669269,-0.1149857789953086,-0.019460606927712565,0.0966752260033098,,,none
1.892875,-72.7913509787373,-0.3459742675891522,10.646287700129315,-0.3476385361746927,-0.3336958420849443,0.08502376093262974,-0.12160016989026233,0.0206783144327715,0.07280798019464281,,,none
1.9023830000000004,-73.358837291131,0.3946813676533258,10.35159470607512,-0.27966736695355116,-0.3777092612200175,0.11066237124329899,-0.13805395588396713,0.12586217379033948,0.06647865173249685,,,none
1.9119609999999998,-73.87059251721155,1.802242356122,10.117292098586137,-0.1294796725236951,-0.3515705055661726,0.0851720671434543,-0.14949438506807644,0.2599399685633966,0.07831052348099181,,,none
1.921482000000001,-74.3098333823915,3.7933725816535016,9.930546948283364,0.023932137670857383,-0.2991518547740434,0.0010468869994699908,-0.15384253643339088,0.37812791037463567,0.09155794380169284,,,none
1.9334369999999996,-74.68363737208448,6.070846878141605,9.789939139939056,0.12070941598794284,-0.2885363919151928,-0.09139774586247383,-0.14921027469315384,0.437296158097893,0.10145338146122472,,,none
1.9404950000000003,-74.99280209299401,8.226436768915592,9.723381198021428,0.14775688171235504,-0.2776634633550363,-0.18574140861574884,-0.13150741381801195,0.41563212626903284,0.11414401466861936,,,none
1.9499809999999993,-75.25175735050934,9.91264405881179,9.748032854414275,0.10867822047052805,-0.2820040046691449,-0.21102017674522006,-0.10601348299829016,0.32459879642629963,0.12215932200107127,,,none
1.959498,-75.48177397453249,10.964355237529778,9.769836509650101,0.011524665516832433,-0.2714499539980418,-0.17913670293138206,-0.07941218318144448,0.20021527643588974,0.11815062657852941,,,none
1.9690770000000004,-76.04937319652456,11.586034602315088,9.672625783211313,-0.07570411661120516,-0.2796020655058137,-0.12192433534040437,-0.061931474044359225,0.08625373135370148,0.10591522141198945,,,none
1.9785819999999994,-76.62542828325054,11.946518392176378,9.546546416122522,-0.14413929062457898,-0.3057375552157138,-0.026660929105023795,-0.05540421990771894,0.01984935734061611,0.09974050668632807,,,none
1.9880600000000008,-77.18582905898339,12.34863489454137,9.399511264000722,-0.1784186554837012,-0.3185191908100844,0.024565243938775655,-0.05461040592853941,0.024997783582603614,0.09774695230163417,,,none
1.9975579999999997,-77.38764648921051,12.879089396552303,9.351175576299827,-0.16950646084903498,-0.3418704664836222,0.05399879944346083,-0.05579569005298759,0.09859715607090942,0.0946772029227153,,,none
2.0071189999999994,-77.82136025412835,14.164114850043548,9.238529668350417,-0.13858780204157464,-0.3417129861829735,0.03144846958466567,-0.053045998303672535,0.21237132443814838,0.09097589726710362,,,none
