timestamp,roll,pitch,yaw,acc_x,acc_y,acc_z,gyro_x,gyro_y,gyro_z,acc_mag,gyro_mag,markers
0.0,88.54571198558133,-14.273149416506332,4.333599604672969,0.01573947581366943,-0.10449001700084343,-0.030656110196358905,0.007006528709579045,0.052034798080658,-0.0007680312684360567,,,none
0.009523999999998978,88.44171366823825,-14.070944476115061,4.344509873680305,0.05483926805990897,-0.10005253791821365,-0.03986351685650897,-0.0001342442204470335,0.05148078078138724,-0.002969275899799647,,,none
0.02854200000000162,88.11266367433822,-13.819071959450074,4.362718758951645,0.07103745992672705,-0.10123663263007268,-0.04109202030456663,0.0,0.0,0.0,,,none
0.038040999999992664,87.90486596573106,-13.75060105402991,4.376721020304785,0.057785762511345685,-0.09814518678755302,-0.03672740874237747,0.0,0.0,0.0,,,none
0.047556000000000154,87.69550331276767,-13.681436579336285,4.380530973230772,0.015630935872246517,-0.09600621220443052,-0.033900016006535624,0.0,0.0,0.0,,,none
0.05697399999999675,87.49047585683141,-13.57225704191606,4.371052739181203,0.012296050105278893,-0.0920985345313122,-0.02170956142481654,0.0,0.0,0.0,,,none
0.06658600000000092,87.28281302689074,-13.39692559375056,4.359278562241452,0.005743058754991285,-0.08811057793177524,0.004076273969084561,0.0,0.0,0.0,,,none
0.07609300000000019,87.06357207079462,-13.155577533312584,4.3561315205605045,-0.020351060604527085,-0.09363980764512159,-0.001568255044690191,0.0,0.0,0.0,,,none
0.08560699999999599,86.82693123821866,-12.871863162549127,4.363138822910901,0.012092920927238014,-0.09515438051216012,-0.021087398612227387,-0.02840909364862061,0.051827962758943816,-0.009318037306697809,,,none
0.09510299999999461,86.5669580149638,-12.58691464312879,4.377713133875854,0.012784613516790765,-0.09918384552474717,-0.023183170769366542,-0.032458740548196884,0.0557413918256009,-0.00861415007048151,,,none
0.10463299999999265,86.29717223662878,-12.3378083635306,4.392038174192574,0.011762124470205238,-0.09431347414430959,-0.020596547520783968,-0.03545176392803285,0.052318659057860206,-0.00885074140188168,,,none
0.11413100000000043,86.03022886618197,-12.14770370681793,4.401190753613791,0.03820916230816124,-0.08198945629759836,0.012857122358598027,-0.0364143248524823,0.04350953686515169,-0.009554618356593164,,,none
0.12364499999999623,85.77702393322595,-12.009079247409074,4.410345912621745,0.039157226226949164,-0.07582844394415594,0.012999242479228117,0.0,0.0,0.0,,,none
0.13314099999999485,85.54559466900726,-11.89683099856976,4.416168349649513,0.004329164266098735,-0.07086002085277443,0.0054108747219425435,0.0,0.0,0.0,,,none
0.1426699999999954,85.33643079975415,-11.778203163595236,4.408113225398703,0.004162699271876261,-0.06896520678650316,0.005516634739769339,0.0,0.0,0.0,,,none
0.1521809999999988,85.13925648885724,-11.624783034611776,4.386407486386266,0.004348285260121904,-0.07308870795913308,0.006097849150238416,0.0,0.0,0.0,,,none
0.16168499999999142,84.92813544813283,-11.418992150663142,4.366515621210632,0.005044835827709281,-0.08593136574683816,0.007487389924432185,0.0,0.0,0.0,,,none
0.17120699999999545,84.70707115397043,-11.171097507630645,4.352793665832978,0.0047540162099417175,-0.08183998798438635,0.007449564458002109,-0.029004620387241366,0.04404073804722459,-0.011451771784782825,,,none
0.1807110000000023,84.45496317059185,-10.913078881210382,4.344674537662677,0.005235853118972488,-0.09103515220136402,0.008690958970089587,-0.033613198788103024,0.04859574151348595,-0.01134034555446648,,,none
0.1902159999999924,84.1946804025474,-10.685508121825364,4.343402840552832,0.00455971379237658,-0.07996816615048123,0.008000943886260556,-0.03769773554023701,0.047001148604439325,-0.010066365766654537,,,none
0.19973199999999736,83.88240211706801,-10.501180271772556,4.3822072637088345,0.03920068789376904,-0.12131596286915236,0.056028909453211255,-0.03867181673190707,0.040335146885592296,-0.003786765138302421,,,none
0.20923599999998999,83.61765838200559,-10.359157736179572,4.430379472327406,0.032313659214754084,-0.05674140468492152,0.05533532954670394,-0.042219218560983804,0.031147558014134914,1.8534952785595296e-05,,,none
0.2187539999999899,83.39745546573201,-10.257022080585642,4.444659286078526,0.026948967164352522,-0.06082625265143264,0.08199530122432941,0.0,0.0,0.0,,,none
0.22820099999999854,83.27621240143692,-10.15697513232463,4.411688900850186,0.02241702431552646,-0.08547987471147706,0.108735676243297,0.0,0.0,0.0,,,none
0.23771599999999182,83.17672285492641,-10.048623389567018,4.387054159699352,0.011734325825440988,-0.07348023823509414,0.11791992938817106,0.0,0.0,0.0,,,none
0.24723699999999837,83.10965445089919,-9.911132334596756,4.370957075237199,-0.01658621091510991,-0.06662967713658788,0.12371250794878484,0.0,0.0,0.0,,,none
0.25673499999999194,83.07179725648155,-9.744448102351845,4.335503091159115,-0.0162473508159287,-0.06585455443193192,0.12332751574839874,0.0,0.0,0.0,,,none
0.26624900000000196,83.0679686312611,-9.565750372059206,4.282888020467523,0.031467160446957555,-0.059466060588273945,0.12484325766362543,0.0,0.0,0.0,,,none
0.275739999999999,83.09939607402808,-9.400450622149036,4.2415031849870575,0.05440517993946529,-0.05854539593947747,0.1205398150034466,0.0,0.0,0.0,,,none
0.28525599999998974,83.16934700079156,-9.277921582290018,4.2122963553136765,0.07263912762752124,-0.05747056346874043,0.10937051235478934,0.0,0.0,0.0,,,none
0.2947669999999931,83.27981929521758,-9.215959954346909,4.174971914069512,0.08138798521625037,-0.06270355774402787,0.10157268090017364,0.0,0.0,0.0,,,none
0.3042689999999908,83.41817699720988,-9.210269924355972,4.1254367918851385,0.08153558925031651,-0.08395309743695852,0.09362565573661262,0.0,0.0,0.0,,,none
0.3137749999999926,83.56969534473888,-9.236491150379965,4.076900138293788,0.07397203809148001,-0.09499018083357522,0.08356834139356988,0.0,0.0,0.0,,,none
0.323363999999998,83.60729178132308,-9.324682534348424,4.043581616397687,0.06439566647975609,-0.10440346269506631,0.07664646321068591,0.0,0.0,0.0,,,none
0.3328810000000004,83.63278351498182,-9.398407160563103,3.992221617904761,0.06439903327519947,-0.09866243764893708,0.06681883628567678,0.0,0.0,0.0,,,none
0.3423870000000022,83.64003706536384,-9.457978665369124,3.987367765673537,0.07185286051592822,-0.09884902602211781,0.0631248878704317,0.0,0.0,0.0,,,none
0.3518940000000015,83.63664668505278,-9.513694807713492,3.9561926002736096,0.07762727200264208,-0.08997176467471606,0.05851214111552251,0.0,0.0,0.0,,,none
0.3613989999999916,83.63866297256519,-9.581207212947469,3.9237805551932814,0.07870755105451009,-0.07795742697373949,0.05429104557369841,0.0,0.0,0.0,,,none
0.37090699999998833,83.64698286649586,-9.676348048891676,3.887442467682698,0.07779255507045267,-0.07775710343863279,0.05201098552946518,0.0,0.0,0.0,,,none
0.380431999999999,83.67132740792833,-9.801073121054491,3.858188807505154,0.07009301470221785,-0.07472489541650558,0.047550642583650486,0.0,0.0,0.0,,,none
0.3899359999999916,83.70591753672196,-9.943211846691746,3.833315289818543,0.060115033306991354,-0.0834045277414759,0.01930606250346471,0.0,0.0,0.0,,,none
0.39944099999999594,83.75452955372216,-10.090853567975845,3.812217128984912,0.04593184065790248,-0.08695574978736584,0.017111019558646225,0.0,0.0,0.0,,,none
0.4089519999999993,83.82830776531534,-10.226429911225162,3.7694512060190135,0.031575124954790736,-0.08268037076418132,0.013996771366753251,0.0,0.0,0.0,,,none
0.4184750000000008,83.91915216100239,-10.344788542382702,3.720729438418026,0.003913715549676691,-0.08537129000153623,0.008954620730860214,0.0,0.0,0.0,,,none
0.4279679999999928,84.02206327357113,-10.443485672181605,3.6823934012577633,0.010290976433356662,-0.0919647007111545,-0.023672204517173695,0.0,0.0,0.0,,,none
0.4374909999999943,84.12412976239858,-10.528977927231503,3.6233747753905696,0.015869770838268647,-0.10751214720794473,-0.04865716880888638,0.0,0.0,0.0,,,none
0.446992999999992,84.23474005240253,-10.607025702151487,3.5581876206187317,0.022112927067771192,-0.11152566297640416,-0.08089189800313065,0.04921984552089913,-0.005064063708357094,-0.014548754302481898,,,none
0.4564489999999921,84.51341988653289,-10.642252613812763,3.490952389772377,0.028887544377037708,-0.10714672634106331,-0.11872641665815181,0.05516984697346898,-0.0036405458928987842,-0.015567004963699504,,,none
0.4659469999999999,84.84625047063972,-10.666169800873256,3.415706101456631,0.009004280684206395,-0.08904805231707294,-0.16667480284578917,0.06566107133340694,-0.0007974954077791063,-0.016634944465071824,,,none
0.47545900000000074,85.27188134461282,-10.655387554856791,3.304347358852886,-0.027491932432492455,0.00797567348900635,-0.24828305575817158,0.08347161220451839,0.007100206547768127,-0.017083553921638614,,,none
0.48495499999999936,85.89111350600395,-10.577151960749916,3.1677217271116302,-0.03345809809020544,0.06885699193093092,-0.36166989035852,0.12077297977760143,0.022564888007637198,-0.013737880521393794,,,none
0.49447399999999675,86.84430397885303,-10.41979551952808,2.979375720193151,-0.04547248248588672,0.03611860783228307,-0.4287462449796193,0.1856814046001585,0.04157813452460694,-0.010162127152940506,,,none
0.5039769999999919,88.0139297393513,-10.184752453728043,2.6832486088707888,-0.03423011093717522,0.10791974621265399,-0.5591175630379567,0.22778504137754974,0.058425343977772215,-0.02193931553217104,,,none
0.5134829999999937,89.52026224678374,-9.884028483154978,2.363769195860482,0.0010034906623237743,0.03892167705775066,-0.749217357166105,0.2940400527537433,0.07322383413216861,-0.01142003326336371,,,none
0.5229939999999971,91.47538561278688,-9.52733084571733,2.126619429692914,-0.022367146676136734,0.019987752240286268,-0.8226565867966267,0.3827507693674331,0.08647258943622117,0.01850873465629516,,,none
0.5323279999999926,93.57630493645884,-9.103395497734661,1.8587626311676675,-0.019847764798906157,0.028835963011411874,-0.9823410787883908,0.41188697048330686,0.09925369467007104,0.01445579114440583,,,none
0.541838999999996,95.94671825815314,-8.641294586047234,1.5173079195448032,0.0034113308339234825,-0.09978200226581974,-1.0148605843665188,0.4659871951614845,0.10628160613846895,0.004833320463110559,,,none
0.5513550000000009,98.14196908187682,-8.163672390725944,1.235441486337515,0.013169099481746124,-0.3070197774277858,-1.045696942584183,0.4323815077010817,0.10603533042633974,0.007788806485268838,,,none
0.5609400000000022,99.84416944346242,-7.703990584980871,1.0620228390940523,0.0419826167799397,-0.0019761129655000227,-1.260942429960393,0.33563054909607587,0.09878144090192607,0.012314774055999324,,,none
0.5799609999999973,102.77675375543724,-6.9281015620559305,0.6055307491889741,0.0668534564862648,-0.1904245308302162,-1.2625972116076487,0.24956581085697865,0.07801093470846568,-0.021581773663250287,,,none
0.5895699999999948,103.53888694894793,-6.585612569974287,0.360698313057622,0.08393873945026212,0.002156944074265336,-1.2953408892384684,0.15094667433751285,0.06984766222089059,-0.031072916544627117,,,none
0.5989739999999983,104.072462208444,-6.264977296306932,0.14764765154064882,0.03527375520575275,-0.0946999404879703,-1.2095846869369815,0.10587313289513059,0.06466780392429765,-0.030707529591344006,,,none
0.6084989999999948,104.24483776798697,-5.898400071124028,-0.1099162217463165,0.002207789758865837,-0.025010805616765875,-1.138240816835491,0.034290582887103835,0.07340776639442662,-0.047919975354504714,,,none
0.6180049999999966,104.26340367587247,-5.470246091227528,-0.3462753600313451,-0.013991925549792334,-0.03481637766013629,-1.0506826037907049,0.003997767662018665,0.08571209999829475,-0.05869721973223994,,,none
0.6276129999999966,104.21156051347724,-4.999440336235376,-0.5453233892234464,-0.038549568015209104,-0.08634784758474534,-0.9411907921403709,-0.009638915831242306,0.0943401777854065,-0.049255112867329164,,,none
0.6466369999999984,104.20004303526973,-4.000117395981305,-0.9249433185854316,-0.042591158961642187,0.004239329526084567,-0.8378156927324544,0.017918129857271203,0.10023406081138597,-0.03825291813853621,,,none
0.6561449999999951,104.4575320695689,-3.525683864482569,-1.137266773323714,-0.005977981311562256,-0.01658880304516501,-0.821110499540263,0.053143520052217647,0.09405168415809541,-0.03913546733582215,,,none
0.6751489999999905,105.56916867787744,-2.754103145715415,-1.4188921280624596,0.014773012297832911,-0.017207647078843275,-0.8588968484521419,0.13415789127196937,0.06864140805588448,-0.027009810705057712,,,none
0.6846729999999894,106.34754116180925,-2.407732840597364,-1.570333332712184,0.03852119027411993,-0.008663546722915718,-0.9214347933465302,0.15739796302517103,0.0653553362660772,-0.03638242426688392,,,none
0.6940089999999941,107.2220555715523,-2.0475853471160095,-1.7595146200780316,0.03439527042117578,-0.0279397792218053,-0.9855842264294017,0.17694708145290616,0.06707650702263972,-0.041754738106136904,,,none
0.7036009999999919,108.10059693599518,-1.6573216511715452,-1.9295447392732057,-0.009162646901369304,-0.052326375830564216,-1.0397388554546372,0.1782022196777879,0.07250162591951533,-0.03642942073717121,,,none
0.7131019999999921,108.89442753590457,-1.2165026341160905,-2.074327872076897,-0.02740108212347746,-0.015785210962718017,-1.0821276696336843,0.16184142740074042,0.08271116708288875,-0.0326671427855719,,,none
0.7226209999999895,109.58898087902026,-0.7216629660090419,-2.2379465389092745,-0.02791486320954418,-0.03629269121492894,-1.1065918011827154,0.14264962322061275,0.09380464358520463,-0.034895533724320756,,,none
0.7321239999999989,110.12603243459733,-0.2045310387689031,-2.4063027763671174,0.0024088251386499638,-0.03759292682941904,-1.1163401890164963,0.11162831394294773,0.09910065898609871,-0.03284629321107218,,,none
0.7416329999999931,110.52120499087006,0.29165055253338407,-2.5389674401249804,-0.0064197742874207145,-0.01861449532739038,-1.0979440516062244,0.08333233692235784,0.09584221132718355,-0.026628925855740067,,,none
0.7511339999999933,110.81208846573976,0.7507835437737151,-2.675827032595173,-0.014622867795238442,-0.01734918232176098,-1.0528511378528478,0.06235904198794085,0.08918548481695585,-0.027938170895412614,,,none
0.7605729999999937,111.0294096251201,1.1760433687760066,-2.850919829577257,0.01639655722898652,-0.017923894115096088,-1.002980364099867,0.04755862884694632,0.08295084443698589,-0.03579499444843444,,,none
0.770268999999999,111.23581381273287,1.5696332402329887,-3.0405280637659855,0.01574970240073022,-0.031107625479013117,-0.9538067668808293,0.0453082743510631,0.07657865232056339,-0.03895953077598267,,,none
0.7797819999999973,111.47257364719212,1.9499459902736094,-3.2184012149105943,-0.0006326838971123501,-0.026195060457829406,-0.9108825902341705,0.05146666674069343,0.07344737445424904,-0.03707535384956377,,,none
0.789282,111.78066351973801,2.353089340034683,-3.3958069998423492,-0.03724927969509513,-0.014963202051148905,-0.8833185120938015,0.06619542629221141,0.07702845672640503,-0.03784199448996942,,,none
0.7988099999999889,112.18461514995434,2.8019386224244687,-3.572838409572817,-0.045097593155687773,-0.029386845851805878,-0.8822394336518339,0.0861072540095626,0.08479383462454905,-0.039088783860310054,,,none
0.8083089999999942,112.6697914452525,3.28733935511574,-3.7218070989517376,-0.018622104117935728,-0.03468363391019698,-0.9056937164143811,0.10298977994332409,0.09082144858978947,-0.03499266167212469,,,none
0.8178259999999966,113.21462783347614,3.787837921677101,-3.832393909678795,0.02419883832477737,0.28657145664738193,-0.7473918865307051,0.1152402918828933,0.09282246845218696,-0.028878863887777297,,,none
0.8273359999999883,111.92479132592645,4.290131605402731,-4.042767897234317,0.47035935193842576,-1.7359339220825147,2.586830012421086,-0.2500858806289308,0.11801893048000123,-0.023937539752242696,,,none
0.8368349999999936,94.28469952629742,0.5635142905077143,-4.930128834067529,0.9635041156771452,-0.8414250920884689,6.947273705503292,-3.5753538553720334,-0.4692975874348618,-0.07338646525049222,,,none
0.8462449999999961,75.21147414718516,-3.5311598936727933,-2.322261000943095,-0.2775017221138657,6.696784510860153,-5.574892411524292,-3.859815217591639,-0.5848968097530107,0.3255495784014918,,,none
0.8558539999999937,81.19092849272874,-6.306324199028561,1.1897713046473273,0.8800147079272108,-5.168985356686982,4.622546631983419,1.1876069541957923,-0.5670015099901267,0.8051362575293197,,,none
0.8653729999999911,74.95707040524888,-3.9920078200189373,6.59420238101092,-1.6736663420166429,2.427682721331129,3.5512997869295764,-1.2721145199454882,0.37766518600729787,0.9688576179463572,,,none
0.8747819999999962,61.994539447560115,0.2555734452032378,5.129444506009797,-3.345339725764922,3.2398402182958965,-6.100402499937417,-2.6676210098550497,0.5774462743539062,-0.37658377075693383,,,none
0.8937289999999933,64.07502134365528,13.672376636434345,-0.8887640617622505,1.1692250434383,3.6632603191493973,0.07173579976352247,-0.4982919095506585,1.720412298385129,-0.11005680423896178,,,none
0.9033079999999956,55.38853586817684,20.48126509224804,-2.099397669144276,0.6574723863894284,-1.0133519505635413,-4.9274423931424804,-1.6279061106997152,1.4029396888551473,0.2608438893129656,,,none
0.9128229999999888,56.8684179051954,21.685263917583935,-4.194676107514597,0.8822521797055868,1.6258496679748133,-3.2359723990576583,0.28903009099196697,0.2259047640894748,-0.5566362140990082,,,none
0.922434999999993,56.31947541327017,19.101666418040466,-5.328518008032404,2.6766597130122913,-3.6878715573711323,2.1542205604114484,-0.14561467418003052,-0.5069916299230401,-0.18865360510744583,,,none
0.9318359999999899,50.49693859131303,16.308084278179603,-2.0239851066344587,0.22974820139018423,-0.41837604258993266,-3.666607706136997,-1.1445957401897842,-0.4866151672325552,1.0156233547152376,,,none
0.9412809999999894,50.70949719491549,13.209140094614934,2.8859137860873063,-1.8053164105873982,1.3375615142016517,-0.9928605331592055,0.04582020054235177,-0.6203124333898772,0.9720546099310694,,,none
0.9509589999999974,47.02528410281227,9.935783830786676,4.537578053737689,-0.6526766849153097,-1.979471778914954,3.2724296548239167,-0.6788933510444625,-0.7006421310747155,0.4785460878967677,,,none
0.960369,40.085587921933694,9.81782586243364,4.745792524445774,-1.6529665240492817,1.178145054897823,-2.9085529036857425,-1.3625522108294188,-0.13401020990935403,0.28468293768312825,,,none
0.969986999999989,36.282003242624846,13.395226280917425,4.216812871235989,0.35667419258745353,-0.9294573595103467,2.0002763657098885,-0.7999812567733718,0.6553042371359972,0.04056244203322497,,,none
0.9793289999999928,29.252332755952384,18.427906704851175,1.5846773678074813,-0.6288661075826167,0.9749855049136104,-0.6970146440705491,-1.4037451374119683,0.9356981485254467,-0.15417420053902117,,,none
0.9889209999999906,20.37328080144243,20.377066017844786,-3.8478989542679463,0.4147415118721153,0.019643655789885132,-2.0065295006113946,-1.6693560714732902,0.4205806279958432,-0.5214430204830665,,,none
0.99851799999999,13.09221166909475,20.375124457623972,-8.687953213632838,1.8642960832001403,-0.40357135047159387,0.18118849423324843,-1.358730143959047,0.14675002561542497,-0.49497361968772846,,,none
1.0078549999999922,5.564720346015163,20.65704987455238,-10.960612891441052,1.4515572326026962,-0.1370382266084648,-1.1356895196817414,-1.3814913335552959,0.294924002856604,0.049733030204152165,,,none
1.01744699999999,-0.9353268064761076,20.646248225548145,-10.424421434504133,0.052239921290035206,-0.3164864612155709,-1.3566830878141407,-1.1972446060821984,0.22343415874409134,0.5583841990191175,,,none
1.0270479999999935,-4.992254151027674,19.485970099124668,-7.690221408442894,0.06951550170814515,0.4526088852164535,-0.5054745722293215,-0.7902534596404859,-0.10907256006679808,0.8307022884150784,,,none
1.036564999999996,-9.08199727814434,19.281087647871953,-4.455146842508957,0.07731050288564406,1.1219136924552364,0.23325515228514918,-0.7726621193788713,0.04138871022386451,0.9323060155971158,,,none
1.0458909999999975,-13.570496832168084,21.331211027201885,-2.5242756908972614,-0.9839587940767391,0.6315272169030078,-0.9906013212436087,-0.8162940665775104,0.4612517622749636,0.7084778208502671,,,none
1.0555820000000011,-17.561322915850752,23.18943128750703,-2.5650206114584564,0.11014226974739558,1.1473798387483947,2.865962851077004,-0.7223171759361181,0.4043910426986953,0.2945695529444539,,,none
1.064910999999995,-15.934646868724446,22.387403944825166,-3.7686869738008726,-0.9355630395832457,-4.82606142085225,1.5211499728171785,0.2911299581933163,-0.17667523929724666,-0.3870036766696452,,,none
1.0744089999999886,1.8981836893242086,19.146515837453848,-4.998049765189799,-0.9223266157302513,3.3251465336499444,-2.321248830932296,3.283009944446634,-0.8899995876707407,-1.5608153401291525,,,none
1.0840979999999973,13.28466599117682,17.612646258177026,-7.532909417079701,2.519245378444674,-0.8853586708436911,6.274649195502834,2.1192279645472607,-0.5361582538658176,-1.2730656164775953,,,none
1.0935169999999914,15.901998636261169,21.707875252664458,-9.055311321861604,-2.27498873801279,-3.223329175505069,-5.064924543076593,0.6057733689815608,0.7409334790292453,-0.5120403620919012,,,none
1.1029559999999918,25.866442816768313,25.036623681924908,-9.323390978619477,-0.44694218803090435,-0.14228062060449975,-1.0104983631310542,1.9138651909705093,0.36702641923572393,-0.8837263189876565,,,none
1.1126329999999882,29.276897306388538,24.661690393598168,-10.291526316550046,1.9728828536944094,-2.6807589285102456,1.0534507747299566,0.5981439657458398,-0.17854578607664956,-0.5182382837632384,,,none
1.122025999999991,27.976277907043595,23.37627761666701,-9.516314170364193,0.8074835079186485,-2.108961588297371,-5.781688341912081,-0.2783077703731773,-0.21300764265661654,0.22920006764538978,,,none
1.131653,31.388653960191537,22.84349998698608,-5.757286338106219,1.013827038136888,-1.4029442958465133,0.7782496440975348,0.6087816686728116,-0.18891425699784017,0.4735401608133317,,,none
1.1409969999999987,29.026017435892236,20.555282613604156,-3.208962266308299,-0.44158027332827515,0.26432582110691444,-0.9275513254150933,-0.4741143825926357,-0.4223882142340968,0.685059859589632,,,none
1.1505339999999933,24.68608252637203,17.399149605388793,-2.418542873584373,-0.9084738590337075,-0.5678170365974342,-1.0057917038337607,-0.8519016143205024,-0.5905618408059944,0.4407985380324936,,,none
1.1602019999999982,22.340023853355948,16.68944297523551,-2.0956849760860603,-0.058939152609263634,0.4980906753983632,1.3018146052583048,-0.45437104447349413,-0.12428598415556961,0.20232994120634618,,,none
1.169516999999999,17.55031377215531,18.841451769029135,-2.619827555823601,-1.372838077462095,1.0961972282962478,-0.6182780672883245,-0.8948527185503566,0.46784566199423927,0.18774819941704268,,,none
1.179040999999998,13.084021006115906,19.878007805957832,-4.697976519107684,-0.9414779056242789,0.46630299780611945,-1.6033027107685769,-0.8287417448616181,0.26085171766498344,-0.11945511240635723,,,none
1.1885419999999982,10.990143990348361,19.4005316133729,-7.127770839805773,0.6393669924764457,0.9646665514508727,-0.8790358162776473,-0.4026175291177976,-0.05441753886805057,-0.34555308044859917,,,none
1.198055999999994,8.649822736403877,19.726788008923137,-8.602155446906428,1.9319275810677923,-0.3376398314057369,0.02358450499944535,-0.42845160089798506,0.12511992264855565,-0.13826580556707804,,,none
1.2170739999999967,26.188139345815465,20.032502516810045,-6.057894898929587,-0.3143467794313954,1.5700905607332376,-0.5567298244537894,2.638178378944134,-0.5324666881255993,-0.6476387730606408,,,none
1.2267530000000022,35.8850565935463,16.962908550710836,-5.188939997416672,-0.13936565438982915,-1.845825769448391,2.413248950190643,1.773533875590097,-0.7882113611912238,-0.47348462683259523,,,none
1.2360949999999917,40.723664457743574,16.03980308587216,-3.737179332389563,-1.0615039981057213,-2.708197135714789,-1.955463514477806,0.9119987124929957,-0.2553980156547011,-0.010685437655612945,,,none
1.2456109999999967,49.25515939664841,16.78050792717895,-1.9452651824043996,-1.9497790590229822,1.4626722189508639,-1.7649544647735649,1.6437785049866216,0.06857795862260811,-0.1514200131704045,,,none
1.2552939999999921,52.568595148397165,17.52404680311117,-2.6990348963416118,0.5859356484885906,-3.9317061079423707,1.3304564953557758,0.6392961298885201,0.1238875933209626,-0.3774851902852902,,,none
1.264718000000002,51.18869950384531,18.827164358556935,-4.1121489886099,0.18294893659775585,0.8635226209376287,-5.092268618308153,-0.2468998965417401,0.2757152999144274,-0.22622269180209423,,,none
1.2741299999999995,52.35654787088783,20.47033955179131,-4.186274413331319,1.2974629553865906,-2.8278854902513726,0.07998180154796411,0.24308779532448482,0.3124885542750364,-0.12024126787589316,,,none
1.2836479999999995,49.267303070115894,20.95961551319487,-4.894217408532638,0.5302767204261523,-4.403660271802247,0.5435392266703443,-0.5691140786334985,0.14288135161886162,0.05516729222331441,,,none
1.2931589999999886,46.863676761731824,19.354475013895772,-6.705014763754282,-0.5322707376969168,-3.4847893908844014,-0.5935026035137099,-0.48169013383535025,-0.2745496121637055,-0.21941235516542063,,,none
1.3028399999999891,46.171162067166655,17.36897776362603,-7.7200262066922365,-0.39867327788741047,-0.7165346023457076,0.6552652580526206,-0.1800235652002875,-0.3781138248142843,-0.1870240646895996,,,none
1.312179999999998,41.77086082979517,16.839841571141935,-7.302318966024989,-1.371826550628665,-0.6125976068048277,-0.34147750265033633,-0.8487209380045873,0.004496663920197903,0.3266332892430995,,,none
1.3216959999999887,38.505238825149725,17.12201838253272,-6.350157935602437,-1.469959742993443,0.38703602727681197,-1.3968535835921694,-0.6142684983067119,0.1302600894648233,0.3753750194614322,,,none
1.331389999999999,35.600175757979784,17.263244794960915,-6.072386876532855,0.03417393446785218,-0.042101331213013946,0.6833473159846707,-0.5493902269039477,0.08806561247878417,0.22065814358895447,,,none
1.3407129999999938,30.72006977904475,17.86845388255541,-6.164843892892463,0.7314646302579988,-0.04847718209069836,-1.2863342791185421,-0.9134448698828779,0.21932135659720953,0.2666554058586191,,,none
1.3504019999999883,27.57804693967404,18.918985759126173,-6.183765472824124,1.3353711747034103,-1.1968088676147257,0.8172441777005299,-0.5710458823686311,0.2729892942890146,0.1829481664137711,,,none
1.3599169999999958,25.556239424063392,19.013052890145996,-6.749907373650002,0.3650384457934788,-0.7101721132192355,0.3496202672633261,-0.37831882530358635,0.06161292251126015,0.005139714376390366,,,none
1.3693370000000016,24.975487990917596,17.83256678946103,-7.760684778325326,0.1449333142239732,0.2601888702139978,-1.591906719267609,-0.139105343051963,-0.22066653569927072,-0.18486279811650239,,,none
1.3789369999999934,25.058294233046023,17.3442154993805,-8.249532795892604,-0.03747155948278383,-0.21733948606412834,0.25625028020584517,0.002127911827382598,-0.09903266410850793,-0.12429118148344459,,,none
1.3883679999999998,24.814451716062344,17.66448570622243,-8.279718393588695,-0.8811951292368992,0.2949293582111231,-1.6000564910843682,-0.03691110403778987,0.07012791372637708,-0.007664534799393881,,,none
1.3979709999999983,25.220462387881277,17.654038440597706,-8.334987830047503,-0.4931062191989075,-0.2677129882189604,-0.10767925377571212,0.0763597088372826,-0.013206418370698665,-0.05268799324408802,,,none
1.4074659999999994,25.302530705245363,17.572701315040046,-8.34960214383511,0.08659080829863504,-1.1534432841729876,0.5646844203072771,0.0,0.0,0.0,,,none
1.417080999999996,26.263762947008836,18.106913749919176,-7.8680676202443225,-0.043444180061511066,-1.5457552723734378,0.20398545429262124,0.1964040448595779,0.08020635183486341,0.01956350967329836,,,none
1.4263100000000009,28.95240505359972,18.670061601231318,-7.102918413365688,-0.2381441549227509,-0.2955550218119888,-0.8557349368874354,0.5211439660626211,0.04568237548905474,-0.03656984825036565,,,none
1.43601799999999,30.739383551092768,18.661839597011866,-6.673722405707852,0.28238369310042066,-0.6856083700574301,-0.3104075840646068,0.33637587902230487,-0.041971096519434335,-0.05017788319263962,,,none
1.4454199999999986,31.36425150412355,18.70943999304669,-6.275592622083732,0.012330323182218607,-0.6638639011117049,-1.5650368506405499,0.11884299970186457,-0.0037854710380958076,0.01900164175246808,,,none
1.455016999999998,32.476716966495275,18.99128901509413,-5.69583626729764,0.3815031211492125,-1.3000669875686015,-0.05596240138741608,0.21550235033209086,0.03435058893457558,0.022400762490011963,,,none
1.4645249999999947,32.75736275366661,19.107368868844485,-5.392444277687957,0.11695530968414532,-1.65212068430339,0.06748483101800895,0.055095259538406084,0.01805449764285528,0.021158784439408718,,,none
1.473860000000002,33.03894690923739,18.731540624048662,-5.594427964359911,-0.05306544203731883,-1.2510466019104465,-0.5469297273783575,0.0459663909341334,-0.07996908433264256,-0.08148332987908999,,,none
1.4835629999999895,33.26695284929721,18.461509143627257,-5.90999129879856,-0.11801033304917788,-0.8267600443133968,-0.45483128619823493,0.03768730645070244,-0.0581015883754012,-0.09866942362353263,,,none
1.4928680000000014,32.584100883485156,18.681449075061675,-6.074383659142925,-0.3756315673421805,-0.7010569999186037,-0.8028831389625708,-0.12435231947138194,0.05721337156118936,-0.010093303447322831,,,none
1.5025739999999956,31.761037025257885,19.009812140654272,-6.199544626407785,-0.3170573277304752,-0.8982719349422653,-0.2947839226256104,-0.1481073813740683,0.0819245215440069,0.009953071478880377,,,none
1.5120730000000009,30.79062420262784,19.165596072067224,-6.31693781891659,-0.05173858717145876,-1.2260012484716676,0.2401579419767075,-0.17916216025868087,0.05088878226339421,0.02305223310327839,,,none
1.5216080000000005,30.096377852918526,19.32671934053849,-6.146504918786475,-0.001400693852989218,-0.9311839538619004,-0.3407992206613691,-0.12699368100445654,0.04623030163515185,0.06426734474886989,,,none
1.5311179999999922,29.97164529664171,19.5564014714957,-5.609543228387043,0.002769364381347993,-0.44405726563071574,-0.5603138454221078,-0.018748373314935216,0.04815100532675577,0.10179094067663534,,,none
1.5406339999999972,29.690197960821124,19.647114147167407,-4.983404206483014,0.08433031005370162,-0.3812665683676703,-0.6756026999748262,-0.05119987465261202,0.022962321413964856,0.13169450495001633,,,none
1.5501450000000006,29.511047695834364,19.59715223286996,-4.400877334696817,0.21048521703618722,-0.5374769666588917,-0.4686271991050773,-0.03449042618882199,-0.007222726295036864,0.1154961226168655,,,none
1.5691580000000016,30.127641308360616,19.487034666220516,-3.7217234427802133,0.04743966133000625,-0.5509892912273094,-0.39876740536562444,0.08541289373633386,-0.018909078348790048,-0.0008888470644037575,,,none
1.5977049999999906,31.9827820135784,19.421047016531162,-4.3774302747679394,-0.15844348080688142,-0.9016459178541537,-0.2528927221477467,0.1196312491377886,0.025423199071136767,-0.09831860256573048,,,none
1.6071919999999977,32.71479788170682,19.634342354322435,-4.405865384553504,-0.15545803923116142,-1.0459567066706386,-0.20923647539273846,0.14098149221997588,0.03210825647405524,-0.07166267266920505,,,none
1.6167179999999917,33.50788013243419,19.660845487160646,-4.279075938878938,-0.13752746846932337,-1.0107885288649683,-0.38306555976330864,0.14952928169547436,-0.005932533286316717,-0.04313091002337755,,,none
1.6260999999999939,34.303120005811856,19.5818327726806,-3.886422310674294,-0.04581679001827891,-0.9402972805093917,-0.4878353255774111,0.14849210208756058,-0.026358856122596863,0.010058282231176491,,,none
1.6356229999999954,34.960549816369856,19.554798503882772,-3.2147603497957604,-0.011733104272383596,-0.9053549963769053,-0.5081128646322843,0.12346312300081048,-0.013014825359773904,0.07842479088694877,,,none
1.6453259999999972,34.28828840393483,19.422099959000676,-2.9011129892851177,0.011114665611008167,-0.8943765240785756,-0.42487829673277283,0.09403868567316155,-0.01609636799388436,0.09879551011818907,,,none
1.65476799999999,34.64859496127413,19.231045945378625,-2.417551106099638,0.08273813833653622,-0.9007088663825612,-0.301568493930373,0.06624580851310254,-0.04134027875764181,0.0628657118174021,,,none
1.6643429999999881,33.87064667694084,18.91984528130153,-2.522208882265795,0.07245864628197993,-0.7795837370521866,-0.33434794559749975,0.04200983344953169,-0.03801318641837285,0.01843620715813558,,,none
1.6737949999999984,34.03308703862361,18.882405854637764,-2.5100854484511035,-0.007728914055640418,-0.6405976588318819,-0.394750656127268,0.0,0.0,0.0,,,none
1.683296999999996,34.11996427673917,18.913324864863245,-2.6726466204797097,-0.06822916116796156,-0.608872038335359,-0.38894173731400694,0.01671699715717873,0.0054506350942873675,-0.05476382108765883,,,none
1.6928690000000017,33.33395478879432,18.925441513695027,-3.220553925358645,-0.045749942326016806,-0.6889063700505424,-0.284654081342136,0.02170190716028646,-0.0019241317447781692,-0.07656619754453871,,,none
1.702389999999994,32.75186087538631,18.9005653065197,-3.6557041257822784,-0.03021490315072696,-0.7411020548311831,-0.20364272626456367,0.056210032552010014,-0.005688699052364261,-0.06378698282397406,,,none
1.7118830000000003,32.405246038688794,18.919248183521567,-3.838614826548431,-0.07794299559388355,-0.6837915462493178,-0.2701193136636103,0.10171057641918355,-0.011250369442599729,-0.027161450847015302,,,none
1.721392999999992,32.29247431456028,18.861775034835322,-3.7838843159999596,-0.08927675957581585,-0.6232031725350371,-0.32304004273120834,0.1428043729945915,-0.03365453636446179,0.005711968537041625,,,none
1.7309119999999893,32.32435421602007,18.66314609483447,-3.55271730957532,-0.041919560683364714,-0.6395364582854383,-0.30206091656873635,0.16832426034534337,-0.05065397688274625,0.031219686102485544,,,none
1.7404169999999937,32.45234139659915,18.446381234311914,-3.21414292539284,0.0011789623333608688,-0.6847463690786053,-0.24910403338032538,0.18610100935571514,-0.044139526424413954,0.045304154710728496,,,none
1.7499349999999936,32.60782102091272,18.272585686424122,-2.936310887567002,0.006332856068423752,-0.7047995180791438,-0.22875993677059542,0.19227492680489708,-0.03461397581846751,0.031119431887545068,,,none
1.7594469999999944,32.680806814305576,18.066706140736695,-2.893090706098041,0.01599008558823952,-0.7083595005064802,-0.2608615739578578,0.1816801599118716,-0.03812112683910858,-0.011389072770920132,,,none
1.7689529999999962,32.63762722104385,17.8459149281861,-3.0969124243827357,0.03234422512911012,-0.7129943428043056,-0.28088858100964853,0.16313275108153547,-0.03626043810540417,-0.05355521654639768,,,none
1.7784709999999961,32.455632348137584,17.71926217391625,-3.443319455288823,0.011864477804560656,-0.7241118475126175,-0.28974167475531293,0.14069453121419384,-0.021033362467989924,-0.0730453084669834,,,none
1.7879649999999998,32.18593358612946,17.658122970209174,-3.8157484991665775,-0.030606561934350386,-0.7447527600588247,-0.25255485500525043,0.12203065567961306,-0.016745251086734515,-0.07650711447901332,,,none
1.797430999999989,32.77481583495498,17.53404308904125,-3.8877002112782324,-0.05180594580907026,-0.76629085591097,-0.2014637208094712,0.11049749601610498,-0.032247623704650674,-0.06913764692629418,,,none
1.8069369999999907,33.36092462665336,17.337953506495808,-3.8421069999394994,-0.07025256703655823,-0.7388692003401679,-0.18500247940812664,0.10909863920217755,-0.046634939102906725,-0.04412954304400121,,,none
1.8165070000000014,33.19292537927211,17.20131105562872,-3.846017882802971,-0.10116382099645171,-0.6554610526554245,-0.18402788289773434,0.11615196075254511,-0.048157414405717344,-0.007614832774427639,,,none
1.8260159999999956,33.12309864377404,17.087985742900482,-3.705646119849005,-0.09503677737299115,-0.5850953133011456,-0.18549452166900612,0.1223431457984808,-0.04756150941370486,0.0185707469964908,,,none
1.835540999999992,33.1338490566975,16.927049782037255,-3.5193437730744352,-0.07951185750992709,-0.5576509919686186,-0.14828929037235075,0.1291808450226205,-0.04837942670110338,0.02295655928746618,,,none
1.8450440000000015,33.21917207133557,16.732242928940767,-3.36269169111524,-0.006980815104783527,-0.5542129258368791,-0.11929136900093962,0.13888436544754412,-0.04141628730257909,0.01204966998316214,,,none
1.854549999999989,33.34972699733459,16.552066737407845,-3.302004195258962,0.027725089867725795,-0.5270095971005222,-0.15386971860584528,0.14674865567130715,-0.030992663673093345,-0.0089295852678433,,,none
1.8640419999999978,33.50211003574092,16.34432370617883,-3.3801795339139935,0.05112900094933362,-0.5103832364412066,-0.19883182318388973,0.15281826438657398,-0.030805561362032864,-0.037956388114698814,,,none
1.8735609999999951,33.6508369195776,16.06934194770613,-3.569555983853535,0.07207713011050682,-0.5359155694219164,-0.20168011364492497,0.15648124522338597,-0.039391409590547245,-0.06251618479587662,,,none
1.8830699999999894,33.80335502216651,15.773260964067088,-3.7873492021954935,0.05864096231875983,-0.5737425110490755,-0.18031854804700545,0.16121010579298445,-0.04758470434486196,-0.07028400513268686,,,none
1.892589000000001,33.98247279924044,15.488507685895955,-3.9691329352939264,0.009011576535760672,-0.5959619584437111,-0.15449410894690505,0.1671627223470888,-0.05751961837842798,-0.06435199513435413,,,none
1.9020909999999986,34.18814581019056,15.201607359535036,-4.1019642013188,-0.07644649866426192,-0.6030127409263133,-0.12187427378986594,0.17031528748134342,-0.07214981967460962,-0.052926053100430866,,,none
1.911602000000002,34.42252780613047,14.919783065544296,-4.155800420939978,-0.07571424591716985,-0.5907662755756702,-0.12273647792067745,0.17149610337402232,-0.08163224194880382,-0.03857935985071319,,,none
1.9211239999999918,34.67281475413311,14.690513082383491,-4.118398284500155,-0.12368514809849952,-0.572370537210804,-0.09959248825605238,0.17033281384176113,-0.07645297546218165,-0.02293089199147306,,,none
1.9306279999999987,34.92025696865013,14.527870244373478,-4.045568229081458,-0.12331931562143561,-0.5515375339066769,-0.09318359718309892,0.16643862883856658,-0.06297631142626979,-0.014037015321027656,,,none
1.940139000000002,35.144756438037945,14.369837296806852,-4.004140394632231,-0.06207883922409422,-0.5435434070907138,-0.09357100573428405,0.1602429641453446,-0.05275872612573251,-0.017685111369216803,,,none
1.9496539999999953,35.33306711211492,14.175614040529567,-4.01104520068375,-0.018084003693467385,-0.5323324969312956,-0.10207992129977626,0.15272718665302226,-0.04550783788464438,-0.027273539374952107,,,none
1.9591580000000022,35.49542917081168,13.939482007247715,-4.06323295187572,0.040762212423169776,-0.5258105965629495,-0.10474937079789927,0.14618573770870155,-0.04039632045548452,-0.03479028221509119,,,none
1.968673999999993,35.5676356043313,13.651145442855034,-4.174576502461177,0.06911575731745259,-0.5212930636201133,-0.13611292096716782,0.1304336624718027,-0.042811564927812115,-0.03807504580536119,,,none
1.978176999999988,35.56355649798346,13.28987751910677,-4.308446528723894,0.0675737461744764,-0.5271531342101253,-0.17456347909230374,0.12008089362433252,-0.05613427823971728,-0.039709017930357055,,,none
1.9876959999999997,35.630153758545696,12.86936177155312,-4.423736083529622,0.054146119703002774,-0.532324865891404,-0.1053238144339515,0.12583352487917557,-0.0730214892199241,-0.039348375808806145,,,none
1.9971959999999882,35.707880004681456,12.455138134965953,-4.50011621140371,0.008086007261955828,-0.5128521585548189,-0.04941610501421256,0.11873697209575615,-0.08228759196913167,-0.032201650910595,,,none
