timestamp,roll,pitch,yaw,acc_x,acc_y,acc_z,gyro_x,gyro_y,gyro_z,acc_mag,gyro_mag,markers
0.0,65.77838723957805,-0.9895678083694813,-37.269419706909545,-0.30936247879686074,-0.8594526871275112,-0.3482482223652148,0.6710463578542569,-0.17342283589529056,-0.12899094033322403,,,none
0.009500000000002728,68.45275611858787,0.554080580510752,-37.93241474652277,-0.13286056057430162,-0.9764794316265462,-0.4307489781962324,0.6128039451278947,-0.08189534615900376,-0.1307020833664583,,,none
0.01882799999999918,70.36860546567722,1.9577751991747052,-38.5194934721312,0.04297868003768327,-0.9895948965458469,-0.6066672353903828,0.47517267077179026,-0.016447403699558966,-0.13007893962109698,,,none
0.028341999999994982,71.7703630246773,2.938788352269604,-39.103300759502154,0.07576904280277788,-0.9611589922438233,-0.5531406527728167,0.34160392725621197,-0.022702789875230143,-0.12888928480378214,,,none
0.038043000000001825,72.52619974006875,3.444070277261957,-39.642911867326994,-0.10036587393692885,-0.9202069614524805,-0.34370067442741437,0.18097984139925105,-0.017649007439312647,-0.11647470247682531,,,none
0.047549000000003616,72.74443190941949,3.5771849139688645,-40.13232550779142,0.01427760715502764,-0.3726305562854785,-0.5070060633036797,0.05055288168130244,-0.007521797534544789,-0.10067117686941389,,,none
0.05703900000000317,73.1056563033842,3.495895807190102,-40.608747292895764,-0.392195844907085,-0.3582923677703527,0.1643846906965799,0.044449252766339965,-0.05916193756372785,-0.09985137277943552,,,none
0.0665520000000015,72.60548605065046,3.433542873623152,-41.166402130294756,-0.42195863984428217,-0.009258198275458696,0.2727568964951139,-0.08374699664930513,0.05598839729664799,-0.10560323540497199,,,none
0.076075000000003,71.62210184732193,3.449801026051699,-41.762826322372284,-0.17872434017902775,0.3748898331635616,-0.03036178643079978,-0.14512763324320838,0.1325730775625704,-0.10759740794729364,,,none
0.08556900000000667,71.12833310558442,3.5720813907786755,-42.0130383316815,-0.2201015699219718,0.09252316095588227,0.2170306974218192,-0.057114196693574315,0.08410870401711437,-0.04404646009598284,,,none
0.09510299999999461,70.75862871513479,3.841981929448767,-41.648617656572284,0.003965103905251538,0.1583821381096355,0.13140217398991583,-0.01899444977146793,0.08953648923216047,0.07774885883968014,,,none
0.10459799999999575,70.62713354064672,4.0315374228419305,-41.053692615258264,0.2891962266757504,0.2618079993977613,-0.17890350318801512,0.005362692822396789,0.04585148054778505,0.12092479416732836,,,none
0.11414700000000266,71.00594669952343,3.9737784956977684,-40.57450607229297,0.28762142578620836,-0.09540030510607173,-0.1061085520260879,0.049707280890571276,-0.05819986992065154,0.09065258928761542,,,none
0.12364399999999875,71.39430667684381,3.8128921996186107,-40.058875430665324,0.27546406631425063,-0.33218302987891984,-0.25743044497390055,0.038312777303952224,-0.07475093276590322,0.09796588960311682,,,none
0.13314499999999896,71.92456467673728,3.6508957506475386,-39.45713446683278,0.24170872980943936,-0.27989081717929776,-0.47971715604385606,0.060704423411712664,-0.09268531536751047,0.11357587420733135,,,none
0.1426479999999941,72.54483087631522,3.4783490211196972,-39.08113262353555,-0.06920803000107069,-0.48935003131474186,-0.3516612385853863,0.07409503939881547,-0.10519857562742613,0.06756614403657221,,,none
0.152150000000006,72.72529770948096,3.3730877279736724,-39.011845406033345,-0.18821728341011282,-0.4678406068454655,-0.4795143958643983,0.0,0.0,0.0,,,none
0.1616949999999946,72.62036493251101,3.427127113526785,-39.041998167795846,-0.4410083941294714,-0.5759012718717493,-0.3561334395519862,0.0,0.0,0.0,,,none
0.17118399999999667,71.97054782508633,3.6923342215575885,-39.079912378267956,-0.6895068435084715,-0.7288418726808148,-0.11315597514031372,-0.06736758454657257,0.12305966071860572,0.0004821845850436745,,,none
0.18074000000000012,70.82755413191792,4.120197971040624,-39.19396048555226,-0.4664011767192635,-0.40985634036917823,-0.34404946976400314,-0.12302168355556739,0.21055629394669703,-0.007250147359357639,,,none
0.19026300000000163,69.99802234514223,4.5773367526176525,-39.392479430824956,-0.34003437254918256,-0.39576785563428446,-0.145122584137452,-0.07020599892735639,0.17571654222701208,-0.02715940479821675,,,none
0.199774000000005,69.13621457948275,5.002208422925427,-39.592620624076005,-0.1692843306290664,-0.41328093174730746,-0.04644876254737634,-0.07859267808329425,0.17500380116660702,-0.025669933321940952,,,none
0.20919700000000319,68.20640614434505,5.323112984205173,-39.71338756942295,0.023412061700882586,-0.35578973723565294,-0.05807783625571797,-0.10175329610040945,0.1677884694220264,-0.007432470890934056,,,none
0.21873999999999683,67.3202849373634,5.458374148217431,-39.817300039303305,0.04070591947584194,-0.45283373277157757,0.1043743925311317,-0.11845204897333994,0.1338012016871872,-0.004139325783547804,,,none
0.2282600000000059,66.48514637972512,5.406321026928574,-39.97230381768498,0.022843773306811477,-0.3798508139553685,0.06709012614179123,-0.13439880435433071,0.09876734447667429,-0.015204109567597022,,,none
0.23775000000000546,65.97385562698179,5.209703062667691,-40.20517096731408,-0.10798224130732612,-0.38493021250006054,0.22681738331740198,-0.10333785771822852,0.03552048401500143,-0.03715259387158003,,,none
0.2472489999999965,65.51685261189157,5.080707947186902,-40.344666930261454,-0.11077052758586148,-0.24646692563810624,0.22521979976966788,-0.08622975857529892,0.03920678355006414,-0.019722900116305692,,,none
0.256771999999998,65.11686748939498,5.1818764580343295,-40.31561268805547,-0.12943670959165288,-0.09709826886826514,0.0767369720037989,-0.04769574444842683,0.06706527209663848,0.01297840813892006,,,none
0.26627999999999474,65.00736190752946,5.433682946744609,-40.37717530269665,-0.16836008966549718,-0.1411679035235603,0.10492864054720817,0.016003120690961336,0.052559556162628675,-0.010302008345145108,,,none
0.2852969999999999,64.83255128986885,6.126758765502035,-40.97778799295319,-0.038427326777207164,-0.4313114022779942,-0.07110912172683274,0.03503034395078992,0.06997162526942874,-0.0587538540383152,,,none
0.2948959999999943,64.35529171868671,6.135212247969889,-41.21038719285447,-0.0019676705322179476,-0.4677585595678378,-0.09888155264578498,0.035957180277448035,0.0631084671501234,-0.03666514971715741,,,none
0.30439900000000364,63.780087954759466,5.90530406383761,-41.4519153389294,0.016631689452133926,-0.4493360158389054,-0.1429003915716003,-0.009077380730816355,0.04476091346774203,-0.047939570867141554,,,none
0.3139019999999988,63.11576482757486,5.4173266216619655,-41.82730117355715,-0.0216908735100501,-0.4605755758940218,-0.10518676578226399,-0.058201738497309405,0.009521981584700284,-0.07411086805232807,,,none
0.3234199999999987,62.41509269485389,4.886867163876292,-42.162156406952974,-0.10241993812245108,-0.4110376772373683,-0.03304107643598935,-0.08590319837850702,-0.007996767674227103,-0.06576983206609051,,,none
0.33293199999999956,61.74297324259313,4.526413983749382,-42.36302261094497,-0.17361351441367337,-0.24489793458840833,-0.00422714389598623,-0.09477852046484077,-0.0010444335872999246,-0.041748155458960795,,,none
0.3424349999999947,61.1025166458406,4.351609085590807,-42.56818520207624,-0.22771744412931139,-0.11802776953566502,0.012669446314263704,-0.09269090943048507,0.011417327390050773,-0.04337194979450691,,,none
0.35194900000000473,60.47781961900446,4.30909583864021,-42.84734127242694,-0.2602008479920405,-0.11393887230215644,0.06189774160617618,-0.07427948994224685,0.025001762966316773,-0.05648908971643878,,,none
0.36140600000000234,60.134529357736575,4.3464117739797,-43.07275761939337,-0.24342832511331294,-0.14685808718826962,0.06295657467646588,-0.045090737206716434,0.05215557403916224,-0.0493796624060004,,,none
0.37097199999999475,59.545692170460846,4.565529482133427,-43.21831509182505,-0.1766870674387106,-0.1910147598674828,0.025577693205502496,-0.016389036277579608,0.0736961849515957,-0.031703365781818954,,,none
0.38047400000000664,58.95681759897349,4.6968921890733295,-43.35031476885083,-0.11506797013703708,-0.2794421495737845,0.015310579386321466,-0.008117251927300145,0.07512688216311621,-0.027557152617870465,,,none
0.3899980000000056,58.36956219833946,4.604528615787116,-43.49853850189935,-0.030438912042129434,-0.37082806882220454,-0.019702496228842865,-0.017472533834904953,0.060409416273489634,-0.02642229045980491,,,none
0.39950199999999825,57.86271350623903,4.323805084483371,-43.57001283211288,0.030173965103731767,-0.41618544352367204,-0.0012608844818202804,0.0,0.0,0.0,,,none
0.40900800000000004,57.399249718729536,3.936769175701048,-43.55450251408754,0.047495306068162185,-0.386925908685182,-0.0020503297692399114,0.0,0.0,0.0,,,none
0.4185120000000069,57.02601498251732,3.497671391792977,-43.56137681152391,0.038711299324694234,-0.3114162841050783,-0.009604417726809873,0.0,0.0,0.0,,,none
0.4280289999999951,56.69717358884695,3.104819604396803,-43.65875517831546,-0.022949383512131268,-0.2666177328668315,0.028418852480947415,-0.04546166660269912,-0.016582019316192454,-0.026330597203776486,,,none
0.4375260000000054,56.46427589426893,2.856898746011574,-43.8233222749411,-0.03652287574782148,-0.1602204181033679,-0.04907947662995909,-0.030888833278612554,-0.012236017202956985,-0.04423353380180743,,,none
0.4470500000000044,56.36292552690188,2.8055613692000434,-44.0659942274587,-0.0694592206536983,-0.1026221283543292,-0.07854933116618969,0.0028378168901881857,-0.01007507876752883,-0.060381800226250316,,,none
0.45650100000000293,56.47564551779993,2.8921008590406077,-44.371482404365864,-0.07693071115390875,-0.06752184436403799,-0.15386372405164098,0.028239362037838965,-0.003290038722281288,-0.07508360136320086,,,none
0.46600100000000566,56.6577801652645,3.051037917069565,-44.68405492184131,0.036800650324578646,-0.03957877906754168,-0.3491747979053443,0.0482799136555958,-0.0028284945552531403,-0.07712032872584308,,,none
0.4754920000000027,57.00775633293465,3.2439471355359024,-44.873918544551614,0.07143945456860189,-0.07546323118224138,-0.4351565776929081,0.07688521789839041,-0.02181602442918135,-0.05734237729496644,,,none
0.484997000000007,57.473919088293535,3.4219692433592983,-44.92156709684974,0.06754282625070025,-0.07690973457781237,-0.5020209520762798,0.09118952583825402,-0.040463048878598515,-0.02935273572666277,,,none
0.4945160000000044,57.98369700366902,3.5081122008339074,-44.942279692762654,0.14782994359531748,0.02019706197317754,-0.6584386777025386,0.08434425693393033,-0.05969789231161314,-0.02355268650028826,,,none
0.5040170000000046,58.57424648938959,3.4950792670015174,-45.03163122176054,0.18151862889365344,0.03526745720875664,-0.8091611119511977,0.08167750313431862,-0.08523223057840076,-0.038871656701079484,,,none
0.5135350000000045,59.40412153716194,3.4781539295039607,-45.15703572692761,0.06748935142784909,-0.028384830230570243,-0.8190105376640628,0.11475462715956111,-0.1197932974231606,-0.04917689775408754,,,none
0.5230459999999937,60.41358051936261,3.549881908581641,-45.280409764449544,0.08286499356441988,0.0629613490274984,-0.9389698822274949,0.1523931658391052,-0.13296975566836822,-0.05358410637950973,,,none
0.5323769999999968,61.575917351169316,3.733592608819671,-45.45031806781784,-0.019134989546679953,0.0730143521844896,-1.0030797218018237,0.18945416045343086,-0.13929415155479882,-0.0655903712861118,,,none
0.5420770000000061,62.90485766509059,3.9867639289256402,-45.75481774047997,-0.11741177537156841,-0.030702698008989112,-0.8598582702967645,0.2220350614753406,-0.15411113858591677,-0.09082436316294766,,,none
0.551400000000001,63.92463947461581,4.327368561414923,-46.07751494662704,-0.15775327716681853,-0.045430269730693196,-1.0137143716910957,0.19071439918335767,-0.09874582906055997,-0.09099072824990145,,,none
0.5609970000000004,64.87409210599769,4.7096287806661605,-46.275109960856746,-0.13506377330395722,-0.08446446385702569,-1.1129825963825122,0.18648397683962997,-0.08363775196192634,-0.06598674524380471,,,none
0.5704159999999945,65.67872621924846,5.035104842289789,-46.406386739173385,-0.16375805107873975,-0.1571711284490331,-1.0675459783186103,0.15799754640423158,-0.0710798846549736,-0.04939257623160355,,,none
0.5800129999999939,66.11800103488221,5.241115796584769,-46.55382535331493,-0.09723748026154208,-0.1582907800017538,-1.1867213723948853,0.09024497186527337,-0.035083252201907784,-0.04633313301293467,,,none
0.5895340000000004,66.38854826103629,5.33913956102674,-46.68779708550477,-0.09172516855072953,-0.19770262079783313,-1.1278972660385342,0.05132088743851752,-0.025706411054502228,-0.04026970954093765,,,none
0.5989469999999955,66.37562174037528,5.400827529121756,-46.78946503142063,-0.0999748305092418,-0.15828235474373664,-1.0767802208793138,0.0,0.0,0.0,,,none
0.6085329999999942,66.14025123544407,5.46437812783238,-46.94374012900919,-0.050305068366061946,-0.030995845425036292,-1.0787743425910794,-0.022809598992157922,0.04292551602994387,-0.03595623471615214,,,none
0.6181660000000022,65.81422560151206,5.569876199631847,-47.20593836666774,-0.09628235662689263,-0.02634517186431873,-0.9421389907540696,-0.02880712917657405,0.061949872231217715,-0.05461828683004429,,,none
0.6276490000000052,65.37354843500623,5.782730124198445,-47.50016788718572,-0.048730893631414134,0.047646131047705834,-0.9358381562763486,-0.028166691800779426,0.09344258692790212,-0.057606159574964386,,,none
0.637163000000001,64.983089645679,6.098195382106137,-47.764607277910144,-0.0385611385937586,0.09593182844523945,-0.9074252071437819,-0.005765109667125091,0.10001229664254595,-0.052125371505536776,,,none
0.6466910000000041,64.68759599013818,6.44673952767951,-48.03248801714809,0.015026680149127782,0.08394248096942296,-0.8897887122751735,0.012330766826777686,0.09042392313319822,-0.05213866837801215,,,none
0.6562009999999958,64.5009954144178,6.761027346367121,-48.28314431893719,0.06614841431279672,0.04465924651938658,-0.9203221525608228,0.022106362977905004,0.06963006342038645,-0.051774764576606506,,,none
0.665694000000002,64.50013911127424,7.013973305854501,-48.44806730989109,0.08701923654876534,-0.004604759011444319,-0.9145421957395526,0.03772595104848948,0.033788407414669215,-0.0414089814399034,,,none
0.6752050000000054,64.62911733781233,7.191845690585525,-48.556669581050116,0.09114034147742905,-0.013950362134459491,-0.9400319453134767,0.043653671509221066,0.004416911223224032,-0.03245327263012919,,,none
0.6845390000000009,64.86236390185356,7.288489847746896,-48.67802109486637,0.06793776827963204,-0.015769913244880595,-0.9702450712760395,0.04515529322628366,-0.02195306878137008,-0.039142977362695765,,,none
0.6942319999999995,65.16565668099443,7.348273414430789,-48.83156419799182,0.00367179698866992,-0.036851078367828444,-0.9627128065859627,0.04872646990923058,-0.0373697636980427,-0.050851085785035666,,,none
0.7035589999999985,65.45262311338993,7.44854705451053,-49.00104413948447,-0.05414714547044827,-0.018953180738719762,-0.9892056737711249,0.05259491200954478,-0.029726173916085674,-0.05470826433321254,,,none
0.7130619999999936,65.70103850070912,7.6266354070253275,-49.18515712847176,-0.1004330467048047,0.0038570509098841813,-1.0065304139375832,0.05924606056393165,-0.013881123847182621,-0.05798593781933161,,,none
0.7225920000000059,65.85678926067921,7.877195922974405,-49.41510134606178,-0.13071569119730042,-0.009115346424346074,-1.0109902004630762,0.05817824072109372,0.00931984073031209,-0.06339986926999197,,,none
0.7321029999999951,65.89131317460107,8.18059025434419,-49.66749309519145,-0.11842859143635605,-0.030112689671584685,-1.0323439882497278,0.050646681164503216,0.034230599253588775,-0.061169188806317706,,,none
0.7416070000000019,65.82914818568086,8.50249505385215,-49.88604910420217,-0.09130592244141869,-0.05804623910711246,-1.0289838974370986,0.04124428982911516,0.051035652705870946,-0.04907910557794692,,,none
0.7511240000000043,65.67339004111983,8.788167713222261,-50.033655820492875,-0.03963826999514852,-0.058955565952433016,-1.0274026300984764,0.023917644456533337,0.06041591216631828,-0.038812555160487656,,,none
0.7606320000000011,65.46074972686576,8.995994868730776,-50.17482666528373,0.0019436122431285634,-0.06491226896111552,-1.0034406214365041,0.00490588795668546,0.058963190826626016,-0.0369923161967785,,,none
0.7701399999999978,65.23097982472562,9.133557235377571,-50.343511797402975,0.024503591892392578,-0.05498248010584841,-0.9669278882014647,-0.007888727320859039,0.05253748498966,-0.03613282014464461,,,none
0.7798310000000015,65.01982384179094,9.24149107933446,-50.50624711743695,0.033413491931865255,-0.013290821306366305,-0.9386103249643547,-0.009950817832278093,0.045931169892112766,-0.03523447358475788,,,none
0.7893509999999964,64.86317299098683,9.354691950046387,-50.674825506185464,0.019443244730394594,0.029558427345712332,-0.9094591298214675,-0.002159289015656552,0.03830055353730481,-0.041438316119433334,,,none
0.7988349999999969,64.7680561530592,9.5058304224528,-50.86864797441016,-0.002703476347052167,0.047342232081874214,-0.8941891078594907,0.011537316484115065,0.03369590814037275,-0.051300971381054404,,,none
0.8083529999999968,64.73937928306886,9.722123699022791,-51.068381944100054,-0.027729653361974683,0.03862567616556892,-0.8913606240664487,0.030050779575151614,0.03169031199288807,-0.05575730900290404,,,none
0.8178670000000068,64.76801609541107,9.981046169571506,-51.28709032004151,-1.7356674743163196,-1.6028498403737759,1.5025063824658755,0.0439084082142664,0.02813016052390835,-0.06092521158927454,,,none
0.8273750000000035,54.63074827422224,10.766274026760291,-52.28717028709585,-1.8025942209768382,-0.8582112470761492,10.310148414151696,-1.1113328496166845,1.6659839305028705,0.17215550078244232,,,none
0.8367120000000057,32.44029299754113,12.035539232117522,-55.1771107609981,6.8406497886891575,4.427268336714776,1.0754171670882473,-2.3611649828952967,3.6675486247722504,0.38461690562847384,,,none
0.8463969999999961,10.18237634610015,11.18756051080763,-57.96660974371094,6.087305667985836,2.243864129838625,7.732000817139906,-2.527764428568062,3.5621542081876716,0.45104685162589153,,,none
0.8557359999999932,-11.684440175904195,8.753425862707541,-58.51099174985235,6.9464403765071525,3.8481211997607283,1.5303894222388297,-2.673897484322003,3.4175081305120485,0.6865622980890841,,,none
0.8652359999999959,-33.37161168961391,6.853738385471816,-57.51935084811284,9.572447331657374,5.261732636841236,1.0037861919850335,-2.6020241271830606,3.4473266986833258,0.7588547120609854,,,none
0.8748369999999994,-54.72905435461587,6.171519776191031,-55.463337733017354,1.4491792144493214,0.4015033848074708,-3.7327419619446034,-2.4653754069329277,3.4637721714114686,0.8473557843096438,,,none
0.8843480000000028,-73.49120086190476,7.3361010661355595,-52.68554397565378,5.67457555707865,4.794773988309727,-5.7071042399627006,-2.0094726847613646,3.152619356231638,0.9406339192825242,,,none
0.8938399999999973,-94.54562478011788,9.038491240032299,-50.92468049102172,1.7353697939901833,3.0438565302247866,-7.509018191238624,-2.3248379070808203,3.4820487342489765,0.8887096211131372,,,none
0.912865999999994,-126.26626370238269,11.86591730681471,-51.012683532431026,-0.4556257373417141,2.316390441854383,-7.292979231477495,-1.386255177398306,2.093721710523583,0.393748279448688,,,none
0.9223029999999994,-139.40962723883658,12.124316021686521,-51.35671173157336,-3.184163917629827,-1.3991248539106496,-1.6317397880062667,-1.5731988936604875,2.0377799475607485,0.4782846287679594,,,none
0.9318169999999952,-148.57769119390957,12.348435377068771,-50.95381677318711,-1.7414236599305046,-1.450656732405989,-0.02953827881247399,-1.0902382125732435,1.4252097211545476,0.46953059417618037,,,none
0.9413880000000034,-152.83232718932783,12.129879137594378,-50.43691596403403,-1.3930131137613664,-0.6337794517573375,-3.106877866205696,-0.561159590224661,0.6164298741311584,0.28402515445160276,,,none
0.9510269999999963,-156.73396538698665,11.75070206868998,-49.72878104597155,-0.7786341206307538,-1.605409736290949,0.048767538961419526,-0.5486097242524263,0.537448887588852,0.30334138777524894,,,none
0.9603359999999981,-158.50576944969532,11.999278185435378,-49.08667927706974,0.11661073866804342,-0.42765193409616287,-1.1107328032305268,-0.18808093283937424,0.2959820962473853,0.20154876341243078,,,none
0.9699360000000041,-158.26138372211918,13.016242400876946,-48.794147881411675,0.12625455706245703,-0.5177170778681977,-1.5488730588281607,0.1849143581163499,0.09773400298247585,0.04797764369574838,,,none
0.9794289999999961,-158.77618921388571,13.870948409816185,-49.104870146228286,0.20700854510627867,0.14805245372786077,-1.2932557383996808,0.06323054036778833,0.18798638786923577,-0.038248570501054485,,,none
0.9888650000000041,-159.6465164375126,14.622262201810043,-49.885634725119566,0.2846897681739579,0.6700190460390296,-1.2609407153039178,0.0046948826593801,0.22612136413896114,-0.11344217392474547,,,none
0.9983880000000056,-160.85740320930236,15.473011095574904,-50.75313685665336,-0.167058568692559,0.7826831239315502,-1.095712388928983,-0.01838059112363173,0.2889410995616408,-0.1107471156734189,,,none
1.0079819999999984,-163.63997602925124,16.24169842865345,-51.38914921509076,0.23053400252055878,0.9437639410353968,-1.7692558884849836,-0.21700853734762626,0.5135685490432065,0.024898660969474323,,,none
1.0174149999999997,-167.6271658985604,16.208555241636073,-51.93299237301102,0.3282905333486695,0.6471380337070036,-1.3055357040747066,-0.48063443649146165,0.5970477186518515,0.11418817084936299,,,none
1.027006,-172.67185600181918,15.778826625648101,-51.78943033621118,0.1781188191205451,0.4242887797188355,-1.9461089167812642,-0.6699046170415137,0.7079429182147066,0.21959715406766356,,,none
1.0365079999999978,-179.11434298700638,15.706610093980208,-51.359211796835076,0.23551542164470546,0.10557984024925678,-1.6410394500507983,-0.7862818817581672,0.960775832683483,0.3544109634949356,,,none
1.0460269999999952,173.79774406245048,16.179187751797663,-50.89876785257024,-0.04534965523782386,-0.2833861613538742,-2.105149860184009,-0.7864874966408507,1.1189591604429918,0.4044555456187378,,,none
1.0555240000000055,165.89250040101103,16.69464550679372,-50.60448051985264,-0.5410098297252077,-0.5258271716437626,-2.1498952034046512,-0.8845327173666581,1.2379170606342416,0.4337885472996999,,,none
1.0650459999999953,157.30494264088205,17.168666555900085,-50.56245968074385,-0.7050046170191947,-0.48666970431281587,-1.534764006236605,-0.9752954704613805,1.327706420231113,0.43715436190159435,,,none
1.0744849999999957,148.58012405596907,17.705718785366916,-50.87172834291682,-0.9395342715504045,-0.3835909048491414,-1.2769096474065231,-0.9763823994687763,1.3546612157245514,0.3879210435923906,,,none
1.083988000000005,140.23022279164238,18.032697611371646,-51.74558120556173,-1.0985272266492034,-0.4778115924315255,-1.0295458725105764,-0.943550278246576,1.2826377303872083,0.3382591169500936,,,none
1.0934969999999993,132.2742661463333,17.852180032021277,-52.40273202989523,-1.0995199553392379,-0.6048125397133518,-0.7497674825682383,-0.9598416962212016,1.1731019522425135,0.3593073382809413,,,none
1.103194000000002,124.82954668083777,17.320937196003243,-52.74434046385774,-0.6233319222779512,-0.44047584178100024,-0.4515268881495679,-0.9478378113221742,1.0637503644869377,0.38204530191628244,,,none
1.1127010000000013,118.2102711859178,16.79658968463241,-53.0342618609714,-0.49215493654942644,-0.5783797770919156,-0.4284563244014727,-0.8480397355605345,0.9470535351388872,0.3307823080020239,,,none
1.122240000000005,112.11020758323126,16.432172302174497,-53.298823404736936,-0.2594685299393852,-0.626653525449121,-0.48559504717681845,-0.7599296115662453,0.8929780557554371,0.2962848895274521,,,none
1.131726999999998,106.49473561105866,16.24620605364974,-53.08316667199192,-0.1278191474795902,-0.5702903590200147,-0.6303197118853976,-0.6789328149130653,0.8392848040728366,0.2847791644869042,,,none
1.1412360000000064,101.22589981553712,16.26047176652853,-52.90323493801975,-0.17660695618937236,-0.41259581551667557,-0.6883755764913115,-0.609965144150584,0.8084259397274607,0.255425742541195,,,none
1.1505570000000063,95.95790840550345,16.434156845715197,-52.982693786246216,-0.27424590210701927,-0.2729469292498199,-0.802010254415582,-0.5850055703197433,0.8265996791940807,0.20203255669916617,,,none
1.1600719999999995,90.68130298432386,16.58834149376751,-53.17021107571063,-0.4503960758331668,-0.2688314486358741,-0.8447542650880587,-0.5866552459549204,0.8262579232930307,0.18433266827751815,,,none
1.169589000000002,85.37362242805389,16.574193200920387,-53.145198010369896,-1.699897008823075,-1.1966319647765409,-0.5585929146128844,-0.6157594254387772,0.8112675622809773,0.22944205979628904,,,none
1.179265000000001,79.68192347199528,16.2978020865037,-53.75662818441412,-5.524700757097167,-4.745043648013827,3.295469709337912,-0.6984359900515172,0.8425283499835368,0.11533563228628332,,,none
1.1886719999999968,77.09029496030838,16.501077583456823,-52.531181743595326,0.4839086502592161,-0.6710543677268574,-2.328443235117205,-0.2674769848580159,0.42180441881152575,0.31227185877218955,,,none
1.1980980000000017,80.07430827969549,16.56694734004168,-49.57162627635109,2.5147161149971753,0.7964778920976728,-0.9218219342005736,0.3716531096665541,-0.43600754848670825,0.35307017745039776,,,none
1.2076119999999975,79.94596982520832,16.554034331460215,-47.28694366571394,-4.300907306272109,-3.3682334437289123,0.8868256393023444,-0.018310067630354705,0.016683959342683817,0.4000142885715477,,,none
1.217129,78.27008461231597,15.916857342682787,-48.76011819502245,5.496483337236472,4.307812391421138,-3.7967441916953226,-0.31087250476180056,0.1530667095025259,-0.2817614246324782,,,none
1.2266400000000033,80.85999183374649,15.522403968763662,-48.610353243779,-3.543574067236381,-3.6970951247472446,1.233701903770077,0.27177963578265374,-0.42606634889993605,-0.19404360846768606,,,none
1.236155999999994,79.553113255789,16.209547574846294,-46.0949332338978,0.5384980071660157,1.0017807590502166,-1.4789629363338905,-0.07018752495947055,0.27816991198640056,0.5029056274346768,,,none
1.2456549999999993,79.79311447246975,16.998521372668527,-44.482687904580814,0.3174334549689026,2.7863957445074945,-1.359353291354474,0.14444474397790827,0.07886199316078903,0.24111959950874998,,,none
1.2551739999999967,79.65524549753809,17.549305687192717,-45.418475072916124,-2.297220400732178,-3.4401878853881853,-0.06798676281560222,0.05892296711927683,0.09685969882166073,-0.257480770122011,,,none
1.2741910000000018,77.3043205678984,19.08584680617782,-41.98478166571227,-1.1961766729749204,-2.47563343143219,-0.8603693118251691,0.01909905289348044,0.16397123729922414,0.43910599492817715,,,none
1.2836870000000005,75.92626102504089,19.2021574592235,-40.35407233233552,1.1157664558509013,1.9547271911407178,-1.5363185798669106,-0.18137309591438516,0.18867261901066654,0.3574239996666038,,,none
1.293204000000003,73.70475685584613,18.618973653234434,-40.764302747748964,-0.3715118137114035,-1.5265751611577671,-0.8980577955097648,-0.39611701342219574,0.18379586879635895,-0.001515708370909953,,,none
1.3027150000000063,71.78940400660092,18.229817027335983,-40.24997794646337,0.26544575125340075,-0.0018018313486179965,-1.1052329829712717,-0.32773611024884836,0.17617791468646168,0.1602354389832552,,,none
1.3124179999999939,70.39092273173303,18.390218146905607,-38.590905452202655,-0.1329706442933241,0.009902325217864041,-0.5052607610541583,-0.18547317457171159,0.19315005899781026,0.3595350503194087,,,none
1.321747000000002,68.39070250676684,18.734818935553022,-37.60144843628387,-0.38612418686019223,0.5552938378972869,-0.7443333229782537,-0.2569810234665743,0.2878649905422448,0.26435955793750165,,,none
1.3312420000000031,66.67413493056159,19.024135962805847,-37.69740751689594,-0.035739683017412045,0.49419095631770216,-0.8439402186307683,-0.2227744981513707,0.2438860303211041,0.028608870568390555,,,none
1.3407830000000018,65.25771904592445,19.77593678700573,-37.18727487019869,-0.18997539307910905,-0.8795716561442001,-0.4969662842998322,-0.12163483917961722,0.2818171210128997,0.13406969953941314,,,none
1.350272000000004,64.27459517959734,21.0006798874556,-35.466049125874285,0.26070980357849605,0.632042207813357,-1.2572269536332221,-0.004183872637433472,0.3068950373018618,0.35331216046856045,,,none
1.3597850000000022,63.447829794942876,21.661279605547048,-34.37127145614852,0.08818901790530158,-0.2686591042834482,-0.9201070311042877,-0.05120907901964342,0.19661139290690063,0.2226539039666602,,,none
1.3693880000000007,62.429255789733794,21.621556891763728,-34.04097477017234,0.40488358067713226,0.09292101657180427,-1.3542904663560476,-0.16148508863514913,0.09960641229663734,0.08650524592780706,,,none
1.3787990000000008,61.75875024396486,21.496652822721863,-33.28692040517142,0.1905352245096228,-0.8014467685251061,-0.869122029193153,-0.11789063957087069,0.04814019155799684,0.1491598867731396,,,none
1.3883189999999956,61.172837498552525,21.6350325195207,-31.841255713661216,0.018592766749960406,0.3484380967969295,-1.1536956544732537,-0.07721702856074233,0.081922617156407,0.28178535348188655,,,none
1.397816000000006,60.473841478342486,21.61937849638701,-31.023758419856467,-0.28357610052283005,0.2044526351444884,-0.8790516402019444,-0.11278699980718135,0.06493375941837302,0.16491580069900116,,,none
1.4075169999999986,59.51164307557999,21.60905551689804,-30.852299006735564,-0.2571758464689734,-0.05532012278616703,-0.7444298659329728,-0.15490092261740526,0.08994176654568435,0.05106761995763301,,,none
1.4170199999999937,58.506530245198874,22.20232682977892,-30.253421270993726,-0.2020161545479819,-0.14772852766608024,-0.798432810368832,-0.10088515176090078,0.19697583415871472,0.13988693229613983,,,none
1.426355000000001,57.58636130807825,23.311709892691518,-29.137086281553206,-0.18350985525728,0.012109477719575564,-0.9652234383850533,-0.03818754842895711,0.2770541705466458,0.2418053901997229,,,none
1.4359440000000063,56.543876208119684,24.20894254143715,-28.361602936257917,-0.04468253789006441,0.11899037140276579,-1.0924530729947814,-0.08166403472233949,0.24921270660887465,0.1860514272967271,,,none
1.4453790000000026,55.23615509154896,24.620679818975105,-28.037040125210293,-1.1917957990554902,-3.8492437941205684,0.034126495732860036,-0.17159768471168993,0.18492430953535366,0.12006307495472665,,,none
1.454884000000007,60.01117765687261,24.42679765818926,-27.578359759681895,-5.916147073244641,-7.818240451311338,-1.895451242937862,0.7523666764042405,-0.4382199560777304,-0.3621738019988554,,,none
1.4643800000000056,76.04536440026044,22.79280039751329,-29.284947873030127,1.0826346346590787,6.388788460973853,0.7207331588481366,2.438516707085001,-1.6793622007735551,-1.6984397245037754,,,none
1.4738940000000014,86.33550002900958,21.965536159471917,-34.62383014781137,-2.204627306856327,-5.3779882954047205,0.9469786623191397,1.535077590124607,-1.1435842331508754,-1.941899414859616,,,none
1.4834910000000008,89.47993058799561,23.06076754384529,-31.718434768049125,-1.3196619063042876,2.274329289641076,-4.440365215901999,0.6071425926793599,-0.1330642471017567,0.28019434791559544,,,none
1.4929300000000012,100.71661172340889,24.200699433331575,-27.609063229797552,0.4914790683572928,1.9053727061742047,-0.4500002794273469,1.904519405443343,-0.818919470218417,-0.11958333827850794,,,none
1.502440000000007,104.98929441612185,26.46861154145076,-28.089271162522667,-2.1602026095243616,-4.313512047250956,-2.1384947403922947,0.8956436130427463,0.04232964514124049,-0.518898718978374,,,none
1.5120229999999992,100.96384072956795,28.3741608299923,-30.872678097073155,5.152896727594161,3.290791424722546,-5.539683370604617,-0.43679809285404003,0.6829435824568226,-0.24340797457676808,,,none
1.5214540000000056,103.40738871259627,27.07699107600152,-30.56409963629141,-1.762625152112605,-3.5794707293126424,-2.4588286557454686,0.23964305129012597,-0.4444720618420976,-0.16580811999398595,,,none
1.530980999999997,99.05324917736124,25.487004384369552,-33.11699602720667,0.7758697245655947,0.6842363042422317,-0.8934249381469137,-0.8318863476233982,0.14199625138523353,-0.12488097862069202,,,none
1.5404819999999972,92.01055551368408,24.064794270680856,-38.14565087939689,-1.2528991914877063,1.0176494629660369,-1.4114256664396094,-1.2074310831420565,0.5118373964883709,-0.4670490472433071,,,none
1.5499870000000016,87.93408437597492,22.8620832022501,-41.52888603712136,-1.9689905591427297,-2.1254070552908875,0.1868828586511324,-0.7298495472704994,0.29298735242902846,-0.4071513819574797,,,none
1.5596709999999945,83.35390467833226,22.982595515608377,-40.49339706111636,-0.7269311906317061,1.9925316018350516,0.7430479646677793,-0.6227247815444682,0.5711801247369216,0.5165189968855641,,,none
1.5692119999999932,78.9118844183307,24.077690762546982,-40.081422520462326,-0.7893301987340008,0.4803764729982542,-0.3781618379215583,-0.48150772167166966,0.6936435502595417,0.3980216728380283,,,none
1.5787059999999968,76.45272082984177,25.345054970685318,-41.041774120665686,0.7128009417632614,0.9050255211740241,-0.05828828708389318,-0.1758290445518057,0.4832302834231355,-0.03419396339606421,,,none
1.5880400000000066,73.37800413043121,26.602650146408433,-42.270325344555715,1.065976639050647,-1.705314725845051,-0.7298775999455984,-0.2474515336618433,0.5553524076706021,-0.028798046750719928,,,none
1.5975459999999941,71.9483953138762,27.75810918832048,-41.878012467413264,1.1443870436844137,-0.6304306160773181,-1.5525109178400816,-0.034699353120153056,0.34228651815768035,0.16126888361679373,,,none
1.6070529999999934,73.3671166590565,27.666681259591005,-42.52410100436327,-4.433370097184444,-5.919410744985351,-0.7175225133364647,0.17435846249916562,-0.18215337226502534,-0.3074064269934825,,,none
1.6165430000000072,79.0137395114923,26.131767719743713,-45.090033180729684,-1.061487912316694,-2.2438146318390846,-1.287241350475908,0.5173016252164826,-0.9187027811959838,-1.077387328499781,,,none
1.626255999999998,86.70913505007766,24.66483018652802,-46.007236465825464,0.8703403579627159,1.1073407207334698,-0.16256059185298707,0.7682846239813743,-1.1973282257254778,-0.8982942092346362,,,none
1.6355800000000045,91.08055332968388,24.131519943342454,-45.71623245821653,-4.546125278003295,-2.0574740845703694,-1.3999199758433254,0.47980630044958694,-0.6453697422960426,-0.35050391226117994,,,none
1.645105000000001,94.64864452511826,24.644365459990524,-46.17830086227125,2.0737344276572713,4.540992620335839,-1.1426741732933225,0.5269700195984487,-0.39524004979361316,-0.43208325047156426,,,none
1.6546129999999977,98.06059841130315,26.039706576817046,-47.88436618220397,-3.7407733387395705,-3.15006296920395,-2.0157015550701325,0.6258631660940588,-0.260008598204115,-0.686730375007481,,,none
1.6641910000000024,97.92612343043253,27.310877318451425,-46.64786174937518,0.8845861604994023,1.0905545364766864,-2.399978688591373,0.17029274117327017,0.19072254693205562,0.21799948451563847,,,none
1.673700999999994,98.20496465539567,27.964972443707822,-44.92757186975222,-0.014432955367328188,-0.09957382175987628,-2.3365134466063457,0.12830724218872436,0.05605514221823506,0.29201057607904957,,,none
1.6832179999999966,96.20729687441487,28.25851647737236,-45.74774029302291,-0.005202066719894148,-0.3481273799189025,-1.5581879115216692,-0.20661123016127717,0.2919065286626055,-0.009706612340562484,,,none
1.6927160000000043,91.69500287594899,27.984875352794898,-48.395444666888366,0.5912858998521329,-0.764367131498141,-2.1511107225960324,-0.5837832699587573,0.5449436531984859,-0.1470845754477104,,,none
1.7021500000000032,88.04760080073662,26.946661644120205,-49.40721526246237,-0.9070575157935094,-1.2165760013035425,-0.9872548408598689,-0.5831188118676396,0.35069827644901874,0.09659392242450668,,,none
1.711865000000003,84.16496580926493,25.85144716096978,-49.692347702977266,0.2749953206827448,0.7916016118034682,-0.3987057400186182,-0.6191434274714787,0.386726505930331,0.2547153669293559,,,none
1.7211759999999998,79.91720354215549,25.08665158932432,-51.07137017266581,-4.725076156028898,-2.906851337647014,0.30872916955231106,-0.6082644304495525,0.49290564872468706,0.05509547354715575,,,none
1.7306920000000048,78.08918958481215,25.00721877773446,-51.47881998874885,-3.926145282132022,-3.4707003189229293,-0.5870892685432207,-0.22021454969476048,0.2484008679872288,0.039124788685550506,,,none
1.7401880000000034,79.69116000442561,25.737595138218,-49.351580101621785,2.077243463205099,1.4375243933742705,-0.9719905281006116,0.2975779025682138,-0.12970950316095708,0.25526576738827594,,,none
1.7496960000000001,79.30123622196645,26.664976229862226,-47.59491028712795,-1.014784754360587,-2.021978557463252,-0.6832090033120575,0.09237467599911055,0.1756949988797216,0.35823261940670786,,,none
1.759299999999996,78.0043379848979,27.03021698205849,-47.93357433483563,2.2816493591394575,1.5611192400366831,-2.7917731444387046,-0.1019178597940843,0.2205248784343909,0.014925587183956313,,,none
1.7687150000000003,78.6615565060607,26.766564941513714,-48.58815938171494,-0.7386913544865713,-2.3472914126780124,-0.5239704988659964,0.03892938574017267,-0.12266170276951396,-0.22807143681581366,,,none
1.7783119999999997,77.19841662937903,26.345173952788663,-48.399981682680504,0.24049664976826052,0.2553687307290947,-1.5047692800594197,-0.2370736253682859,0.1399359426119987,0.1307313051634403,,,none
1.7877519999999976,76.6471732368644,25.58003172603622,-48.27551446207597,-0.18453594865663747,1.117406333764428,-1.0531635555958865,-0.18037944504428857,-0.027977358179473437,0.03906810887399072,,,none
1.797426999999999,75.96872354293508,24.724392190739675,-48.74834401044547,-1.251390400516502,-0.5053917298637777,-0.1385325913565743,-0.20976518479615316,-0.021718124499427838,-0.0718793630454113,,,none
1.8067889999999949,74.57796780577002,24.405897283748438,-48.332008261158144,-0.19218924582275124,1.0475108249071363,-0.9895915158408444,-0.21568773957773,0.14725311468449342,0.16478511169186094,,,none
1.8162769999999995,74.092711459187,24.602680068867464,-46.93486380027923,-2.859128713756407,-3.097330741020375,0.22318991983438283,-0.03057100243772258,0.0918518329003141,0.2907676102358447,,,none
1.8353699999999975,74.92379882522974,25.306676917116995,-44.03749228119273,2.1381491204830962,0.49955751056816133,-2.4434365335414148,0.21646949843368835,-0.15032682670867833,0.09193994426976988,,,none
1.8448049999999938,76.48854336678914,25.406314547062482,-42.693378974713085,0.11206671334348463,-2.6008682885245373,-0.7039326574781762,0.21976719471677705,-0.17957747779357888,0.10362416131108654,,,none
1.8544049999999999,75.24789836968603,25.215260833305386,-42.74062532317405,1.2655493816028143,0.8753905263611736,-2.3469154152530805,-0.19111957930131349,0.12394544011722652,0.06305660490411863,,,none
1.863826000000003,75.27672549882882,24.616561933676678,-44.21480880910708,-0.051358003606568385,-0.2723729422561659,-1.0372424125654678,-0.0785451866911051,-0.09075380088729,-0.33753489250143937,,,none
1.8735180000000042,74.69816406134086,24.322868952985157,-45.36424813248823,-1.1944487243516126,-0.4770974097641904,-0.15899708093573708,-0.11632601163351995,0.03230716527510053,-0.22521240718899188,,,none
1.8828599999999938,73.73028030830456,24.609174745586163,-45.4405448352559,-0.6672984517840314,1.6080537146454534,-0.8617154906730562,-0.08330250505585093,0.16570751674917222,0.02701303201307014,,,none
1.8923539999999974,73.68523390419429,25.154655466896585,-44.97003181965625,-3.254979257460199,-2.5177028635030565,0.3828288440159068,0.07162628906804361,0.08286956107758453,0.06499940986171657,,,none
1.9018800000000056,74.08373862733683,25.893164667107182,-43.37723522451865,-2.3942062836346074,-2.2924871797695805,-0.8084737577808119,0.15463342080953663,0.0560840516673867,0.2583602172889477,,,none
1.9114749999999958,76.21297412059882,26.256971167340726,-41.35188664993106,0.7522740258941155,-0.07937619502893822,-1.7709450327286909,0.3322392648610639,-0.20383406693694517,0.19373143360072823,,,none
1.9208869999999933,77.89004555005256,26.098461665468008,-39.515958554147744,0.5672357143020049,-1.594904050772449,-1.4456715509914095,0.20903679994261573,-0.21933924772372623,0.19373669296592066,,,none
1.9304810000000003,77.97301141449172,25.46535326667551,-38.616031195266665,1.2494583849188714,-0.05735010180113092,-2.2804490476039017,-0.06817367417971694,-0.10790708115249222,0.15102701066869503,,,none
1.9399130000000042,78.3425985420243,24.550033527318643,-38.878489226200685,0.37729728036501237,-0.5301728435088326,-1.2235373503172444,-0.06222599035576737,-0.1849822676906309,-0.10678919967779536,,,none
1.9494239999999934,77.4164921327619,23.90909229128762,-39.88171136750329,-1.0818097121876609,-1.1063964308575962,-0.6564877120593405,-0.21214058003995137,0.007777105857101706,-0.15622444091414925,,,none
1.9589280000000002,76.53020062306867,23.917839170135856,-40.66948483398589,-2.575527443725864,-2.44171968895635,-0.5938827716285525,-0.12279377362717163,0.1060067099443226,-0.12028527346643078,,,none
1.9684290000000004,77.20616815745402,24.645036410364035,-40.54593797160423,-1.1897432936688066,-0.6521221805524604,-0.6586894489033356,0.18839098819973146,0.030512893533239802,-0.06380596224033659,,,none
1.9779479999999978,77.57499015316594,25.72306133213171,-40.479300665883336,-0.28013188136198924,0.27531915956258063,-0.8784412651623221,0.19084494646928465,0.12098459816076099,-0.05294884779565874,,,none
1.9875480000000039,77.07346075066972,26.699381840238363,-40.65956465940832,-0.2464848052302586,-0.3544711042498886,-1.4730608217372398,0.05838792458925301,0.20717566595250347,-0.027029185536552192,,,none
1.997039000000001,77.099078204852,27.230394417060676,-40.40342275288734,0.3069401558400817,-0.32608316884647637,-1.4378820198528344,0.07246268943499865,0.07794765827544728,0.016329665597764824,,,none
