timestamp,roll,pitch,yaw,acc_x,acc_y,acc_z,gyro_x,gyro_y,gyro_z,acc_mag,gyro_mag,markers
0.0,47.644000339687885,-32.446706474438336,-8.83888827514474,-0.08291412867942069,-0.03674377203608342,0.004491615906855226,0.0,0.0,0.0,,,none
0.009512999999998328,47.59847213346619,-32.3920460032634,-8.912583874328766,-0.08012526698646265,-0.037147309381594204,0.006543857077746812,0.0,0.0,0.0,,,none
0.01901799999999554,47.55312376001688,-32.328547798748815,-9.035983998001004,-0.07993920516688217,-0.03649554598433354,0.006266213740427918,0.0,0.0,0.0,,,none
0.02853499999999798,47.52105787743799,-32.25473757939881,-9.178693822933981,-0.07622350622921215,-0.032632240980005986,0.003843105773904875,0.0,0.0,0.0,,,none
0.038046000000001357,47.508496187457325,-32.17285273306541,-9.312397293080931,-0.07164006884453103,-0.030352437418531653,0.003578638831903152,0.0,0.0,0.0,,,none
0.04756100000000174,47.515084856888905,-32.08775322605377,-9.46257543086925,-0.07040560738915068,-0.03223185250711889,0.006659044577720042,0.0,0.0,0.0,,,none
0.06656999999999869,47.57991974779857,-31.929059017876522,-9.768078403531867,-0.0749959569168234,-0.033853081929423934,0.0071422172625275815,0.0,0.0,0.0,,,none
0.07607999999999748,47.620489303492896,-31.859235488011567,-9.911796701160007,-0.07895158328443871,-0.0350387389318917,0.007096415310920258,0.0,0.0,0.0,,,none
0.08559100000000086,47.64954947056484,-31.79006517397035,-10.047879773535316,-0.0835033530474325,-0.03637960943604303,0.007013353419149297,0.0,0.0,0.0,,,none
0.09511799999999937,47.66521714093857,-31.722266013795352,-10.163043148319694,-0.08438268859731389,-0.03644360365915322,0.0069998510928065425,0.0,0.0,0.0,,,none
0.1046309999999977,47.67261388860884,-31.65504437616798,-10.277764449437406,-0.08263138722875328,-0.03636069991707615,0.00792904622314676,0.0,0.0,0.0,,,none
0.1141319999999979,47.67426524178232,-31.586374011434152,-10.395933754392432,-0.08001113787855574,-0.0363815521219817,0.009342143949920651,0.0,0.0,0.0,,,none
0.12364900000000034,47.680006442256314,-31.51361659093857,-10.530766460172462,-0.07427985607519902,-0.034420977765888566,0.009726890002611796,0.0,0.0,0.0,,,none
0.1331479999999985,47.70041141240991,-31.43564838188328,-10.685046331253394,-0.06660954582219797,-0.03183715571148021,0.010133071877278462,0.0,0.0,0.0,,,none
0.14266500000000093,47.73233341993285,-31.361353153685187,-10.83611509134227,-0.061216787375765,-0.03173563341423969,0.01241869435292788,0.0,0.0,0.0,,,none
0.1521720000000002,47.778535636058294,-31.301465385331927,-10.985641960212332,-0.05267756798985198,-0.02934088060888865,0.01320646934555663,0.0,0.0,0.0,,,none
0.16167499999999535,47.83695354763979,-31.256952636889,-11.131605930550709,-0.0479313840800621,-0.025497902831940814,0.01074736610876383,0.0,0.0,0.0,,,none
0.17118899999999826,47.8965669435164,-31.221530467290382,-11.265442042247708,-0.05157967639797111,-0.02559410159372178,0.009541449529516686,0.0,0.0,0.0,,,none
0.18069500000000005,47.95580316910005,-31.199306137326538,-11.382218889646703,-0.055360522317227545,-0.024982094732739435,0.0074573886440528646,0.0,0.0,0.0,,,none
0.19020199999999932,48.01865886867156,-31.181629082981395,-11.493402178140624,-0.06252018467394578,-0.022801733537402287,0.002275495130886046,0.0,0.0,0.0,,,none
0.199739000000001,48.07357481529632,-31.158982464019655,-11.594583516000826,-0.07173187871720985,-0.02379412076968033,-3.085304379533905e-06,0.0,0.0,0.0,,,none
0.20922900000000055,48.11932812751026,-31.122334554507475,-11.692928976198848,-0.07913135743429814,-0.02480614877037527,-0.0015102448455709043,0.0,0.0,0.0,,,none
0.21874299999999636,48.15076301811591,-31.063141708302215,-11.800744642441222,-0.08862379436030811,-0.026784146278277802,-0.0025918697710866586,0.0,0.0,0.0,,,none
0.22825699999999927,48.17005496432659,-30.99004741856884,-11.913229899235397,-0.08592553270439975,-0.0430023851075787,-0.022806425404728138,0.0,0.0,0.0,,,none
0.23775299999999788,48.17833340290602,-30.905788367403222,-12.023444737112127,-0.09201674941883356,-0.022485284016972636,-0.008147034896974697,0.0,0.0,0.0,,,none
0.2472619999999992,48.17784845966775,-30.822248294968784,-12.1292732825051,-0.08128724638892051,-0.015876006898391616,-0.011457050940241768,0.0,0.0,0.0,,,none
0.25677499999999753,48.18435798045156,-30.74526750847232,-12.228956279912518,-0.07019764365178886,-0.006502883165758051,-0.017896106996366873,0.0,0.0,0.0,,,none
0.2662949999999995,48.21141054524442,-30.690297211768897,-12.308648205922333,-0.050822369372794905,0.011089104597841784,-0.030874166956053207,0.0,0.0,0.0,,,none
0.27580299999999625,48.27243673257315,-30.657630374515,-12.400148686867878,-0.044743456811121504,-0.011318733879119944,-0.05139601710237386,0.0,0.0,0.0,,,none
0.28525499999999937,48.37903439554044,-30.678343067042825,-12.528602753048071,-0.029679348643381554,0.016547162881762494,-0.11209760555846608,0.0,0.0,0.0,,,none
0.2947459999999964,48.53349683164669,-30.703958953936286,-12.648597939324974,-0.04090206975792952,0.03675663307812145,-0.1881627863336212,0.0,0.0,0.0,,,none
0.3042429999999925,48.72861522421902,-30.716804178560142,-12.76744772911136,-0.05752506886943907,0.06729109929678388,-0.3054687017601919,0.0,0.0,0.0,,,none
0.31375899999999746,48.97462175734279,-30.677981848537435,-12.892189645005276,-0.10224262611485618,0.0819827372563288,-0.42867795801219577,0.0,0.0,0.0,,,none
0.3232669999999942,49.25863936608222,-30.548873486042385,-12.996493394025801,-0.08914308108856785,0.0998351924332552,-0.6021790655265707,0.053488131488797296,0.01423129081105203,0.008073829274182992,,,none
0.3327770000000001,49.61657115575775,-30.352450367455322,-13.068580394432495,-0.08354814603849767,0.09609691422818809,-0.7843751336783685,0.06905899551962189,0.024384317562538768,0.021884855843591237,,,none
0.34229400000000254,50.05835434459052,-30.207073679335338,-13.158213751373799,-0.07932459355460147,0.033193087787687384,-0.9125968950223534,0.08100035518463913,0.011018002413701405,0.026652800245141023,,,none
0.35163299999999964,50.49829673626269,-30.15669095802016,-13.179608308643664,-0.030838780615993874,-0.06698896775305527,-0.9989503589724748,0.0764421324178719,-0.007526217640427666,0.04000127528389542,,,none
0.36121700000000345,50.93271406445119,-30.16088120946248,-12.972820616814877,0.03679187133884753,-0.05679208244973441,-1.1104052210526323,0.07306897614282427,-0.01783136003901031,0.08510400880069413,,,none
0.3802250000000029,51.43875980953232,-30.380762176784355,-12.178481407895278,0.013669978954051577,-0.0937928087300832,-1.0551539455372405,0.0064097335698245035,-0.03130613361993902,0.08789998718093615,,,none
0.3896650000000008,51.439955856778326,-30.535110399359333,-11.818579080349801,0.028559207161458003,-0.15164179411599502,-1.0314236037250957,-0.006219670824521402,-0.030270735740348574,0.07218610656553918,,,none
0.39916799999999597,51.34704229727056,-30.599903364776075,-11.510285770774656,-0.026818746849658646,-0.15041505181116716,-0.9531667574713101,-0.018308764906392334,-0.009464584211020366,0.05226859939538677,,,none
0.4087549999999922,50.99529299327399,-30.56551322669115,-11.345994377969259,0.005971350819752558,-0.12360542760037158,-1.0501855962635385,-0.05806491128944378,0.01876444325672141,-0.0029378093027968804,,,none
0.4182039999999958,50.60399270440982,-30.487873020927985,-11.357698095426592,-0.005263276634154553,-0.12208391325384657,-1.0398229099467933,-0.06310851222170855,0.028525255305557745,-0.04214053717095719,,,none
0.42771300000000423,50.0856954179557,-30.364948488414704,-11.4287526464373,-0.055067588730856404,-0.13253665778588192,-0.9807496178985404,-0.08285864769622935,0.04180516336575906,-0.06678356883511885,,,none
0.43721699999999686,49.3807411555009,-30.216747350126646,-11.43476415021534,-0.018092961239879992,-0.0710253586750844,-1.0340254246976817,-0.11358061249066588,0.0532418189989098,-0.07239991588690604,,,none
0.44673099999999266,48.62852518611129,-30.123511824300348,-11.338828750659541,-0.053121936169560124,-0.030687662081176563,-0.9693077248177618,-0.12396077019510703,0.04400928668262678,-0.056485172301873415,,,none
0.45641199999999316,47.79250531944498,-30.12532931684888,-11.146073490421724,-0.01399936642819701,0.007594716661297056,-0.9544102858829011,-0.14207396895351995,0.02787094763124816,-0.04541561142063682,,,none
0.46593499999999466,46.98219949367465,-30.185717973538498,-10.829838610462934,0.008861214120451839,0.047604411859886,-0.9292774176598034,-0.14001709338204832,0.014871707528701683,-0.018183645890069423,,,none
0.4754309999999933,46.2498280113118,-30.254603439428053,-10.437708248454733,-0.006288183653956761,0.08202354732212225,-0.9029600230419876,-0.12707702623532288,0.009829546252451402,0.004708642628101898,,,none
0.4847689999999929,45.64011623100582,-30.32432913391596,-10.102249990324749,0.007270625165107889,0.10372009581849546,-0.9425295858809943,-0.10621152357884951,0.005058061758419221,0.005595549774440961,,,none
0.49445700000000414,45.2286446262013,-30.368960536332004,-9.89763558513349,-0.02712093697154565,0.06792488320107529,-0.9244018284272881,-0.07156842777457266,0.0035460749893029323,-0.0006544119760296882,,,none
0.5039750000000041,44.9250462064315,-30.3314356667028,-9.803795015303095,-0.035179379450470095,0.027826219028354315,-0.9559025849687084,-0.05039795592597163,0.016378571128178043,-0.011926183602975631,,,none
0.5132019999999997,44.68504196125889,-30.212319407734725,-9.776474144716326,-0.04588469361020088,-0.01792030127432173,-0.9984225215937269,-0.03684298922307933,0.030560787611768645,-0.01875580069828835,,,none
0.5228040000000007,44.45095382510199,-30.071196509518916,-9.782047368083097,-0.04883192793963999,-0.06714174241574332,-1.0072559575460305,-0.03514333626212944,0.03472990468108301,-0.02465275692708325,,,none
0.5323260000000047,44.12526150103987,-29.949419249553387,-9.746838668207227,-0.02065858388152441,-0.11061699068802175,-1.0118846699337365,-0.05151554437778088,0.03360725324245022,-0.025567270381231723,,,none
0.541833000000004,43.667674084903176,-29.858800677408226,-9.589784462271846,-0.0022926444346969992,-0.12125088403209909,-0.996019474301066,-0.07524538423301029,0.031225785058794222,-0.014231456738613533,,,none
0.5513340000000042,43.05827685856325,-29.821422912080003,-9.31589097789923,0.01397365615529206,-0.10230380742729105,-0.9852958056776541,-0.10317126880743019,0.02476618432439615,-0.005872679585688937,,,none
0.5608410000000035,42.35219223083794,-29.850109826464966,-8.989406643161647,0.021743716234461478,-0.06379410660960264,-0.9729845318262695,-0.12198662540388168,0.013838333840239367,-0.004965226614030443,,,none
0.5705340000000021,41.61299259758667,-29.90573814457501,-8.670321268391767,0.003130196567454111,-0.027676806005315257,-0.9363460985694677,-0.12852160224654927,0.008695019705253123,-0.009840119597870362,,,none
0.5800499999999928,40.87698754294696,-29.925455110440126,-8.403355655045376,-0.01752383986557536,0.019862374358435114,-0.9423993242797268,-0.12690167389294538,0.01505924064368377,-0.020042008168654524,,,none
0.5895549999999972,40.216781477644254,-29.888226492340234,-8.236290471703041,-0.044943822292852945,0.05125676247611322,-0.9485742961249697,-0.11230200212360664,0.023957281283356596,-0.03245862757315676,,,none
0.5990729999999971,39.65472566145948,-29.7993948610823,-8.180557211354529,-0.056334813542960036,0.05279034258797702,-0.9519278719434204,-0.09407375487108295,0.031541388719613726,-0.04484471309283402,,,none
0.6085849999999979,39.177884054982265,-29.664007939933185,-8.178372086933551,-0.04854891578672584,0.03611033479739683,-0.9510369507168949,-0.07820760299072668,0.03862881793775761,-0.046914474364879985,,,none
0.6180000000000021,38.74486483347557,-29.500076092919127,-8.14498961703262,-0.031502053585314986,0.008579431335010832,-0.9502236461593053,-0.06997659742780189,0.0431961156705493,-0.03611941292697382,,,none
0.627518000000002,38.3130251542019,-29.35686686032605,-8.032606056138166,-0.0030937384391626944,-0.018222760687248075,-0.956335480245378,-0.07052372563807478,0.03898647957896188,-0.019982594649108443,,,none
0.6371129999999923,37.863128280056934,-29.274027638108965,-7.827236897295923,0.016601911248141043,-0.0466360026855562,-0.9434237914058125,-0.07550382769824772,0.02726549037573283,-0.002985194533353827,,,none
0.6466299999999947,37.36603704828742,-29.24235645283331,-7.534470444925199,0.01683606301168608,-0.06590647044803268,-0.9284268722967459,-0.08520477011958544,0.01789236875934875,0.009974458217465305,,,none
0.6561629999999994,36.47473548990316,-28.85830051518787,-7.196721981483819,-0.6096546071698509,-0.4636262015108293,3.6366124972309457,-0.1448616730795495,0.0962659336000803,-0.019034423383969684,,,none
0.6656529999999989,31.609789527762008,-25.23100817945787,-9.304589284204315,-1.3430698813978128,0.5557687172350485,8.538486093781536,-0.754727086249911,0.843004375021435,-0.8647205103264828,,,none
0.6750579999999999,23.165541815172833,-22.786328005139108,-10.448758600389414,4.679981157156635,1.1945772753166226,-4.585767904082271,-1.4380819603838024,0.7463966820002464,-0.9167127150114956,,,none
0.6846559999999968,16.378577494815662,-20.416509014906346,-9.275659645254462,-1.029739746472294,-0.1336263543799859,-0.15323080690929589,-1.1636660544603388,0.6833406113416682,-0.2657186611471647,,,none
0.6941710000000043,13.970472373158083,-24.19241530369014,-7.944912351822483,-0.43180893964761896,-1.655009750202642,2.065464729459443,-0.553647423381021,-0.6811493732416356,0.06098893509533223,,,none
0.7035789999999977,11.985194379155654,-25.565841358173333,-4.4424383006040395,3.0838504204603616,3.1399832311294498,-5.114988994725528,-0.3880492160452371,-0.23472336348299105,0.5191060336656063,,,none
0.7132020000000026,4.168636322729111,-21.17540083094691,-0.11906454449844135,-3.0312484759744747,-1.2172310872157877,4.375170365621305,-1.4000171676788775,0.9353375893121564,0.2626953085915651,,,none
0.7226089999999985,4.256265618603222,-17.192576186980745,3.2896460389522457,-0.7200867181388408,0.8361040388137326,-8.436167913896977,-0.004485803384656959,0.7977714404713432,0.7166111005552606,,,none
0.7322160000000011,5.216101210804651,-18.93724906303447,4.552650675068143,-2.895930568140265,2.9650353777421317,3.9511913721925143,0.20619126570884969,-0.3360225147988278,0.3124653903369094,,,none
0.7415439999999975,0.41150479073139623,-16.952466099798556,3.738184151339181,1.671983532744652,-1.5791738269758473,-2.23359255224939,-0.941621094583391,0.32998927097077363,-0.45939239397865883,,,none
0.7511309999999938,4.577469067717415,-11.080147565417738,2.4118185847646516,0.7450525837800567,0.9459155165546184,-2.2697106409723222,0.7461057465706953,1.2166049583996184,-0.05055987864619903,,,none
0.760742999999998,6.061597989398247,-8.141643109632788,0.5788248139846892,-0.6668769225273333,1.0309285075202421,2.5666516953023217,0.27795467603992435,0.595624266710572,-0.30276744321797466,,,none
0.7701580000000021,3.891084213303636,-9.64964103364532,-0.89999057647272,3.4166926053972677,-1.8255851112691015,-5.3260520148489086,-0.4300715501607942,-0.30097160645884113,-0.3767777759550986,,,none
0.779763999999993,6.365908903509326,-8.323661574891682,-0.45329408085593415,0.12476209733484328,-0.3378048219798281,3.4129726415563546,0.49245586569186167,0.25986219738572763,0.1574402046041165,,,none
0.7891849999999963,4.909584017112762,-5.509270685762388,0.9881407474555939,-0.2006357749358507,0.17083195434944665,-2.4529254897883495,-0.2917784508741169,0.5623328010589733,0.26800138717103755,,,none
0.7986100000000036,2.46338541202954,-4.687903128773967,2.6253650919531917,-1.5618801889236933,-1.2861084852642837,-1.9325310209128894,-0.49268867675994227,0.1494054524590946,0.3041306535890655,,,none
0.8083059999999946,1.9226465491161868,-4.839916480922379,4.162058770551175,-0.6490113743208524,0.2704860441489681,0.7791858733266194,-0.1059201180734924,-0.03673575708139125,0.3063851915306699,,,none
0.817809000000004,-1.1430512591277184,-1.8727193310200176,4.928666876556813,-0.5422425236567835,-0.006776271970070692,-0.549898852165899,-0.6577449938234033,0.5438512204942655,0.12828417931875774,,,none
0.8271370000000005,-4.086903766245384,2.507943512189894,4.697367669609673,-0.21949642400859554,-0.37608294895229977,-1.0602659843078,-0.6603148008424592,0.8249891695614138,-0.021832496202566793,,,none
0.8367409999999964,-6.413873911496158,4.863160539988185,3.8811659606655526,0.1328390678293119,0.4884799576025485,-1.307335222324571,-0.4987113520589168,0.4357035354576265,-0.12040103428908364,,,none
0.8461539999999914,-10.252581790452796,5.641783565387197,2.857800201103836,1.4819551445848054,0.17963836741825506,-0.3046622605955914,-0.7732338977629053,0.1105910883143484,-0.13446288403051565,,,none
0.8556780000000046,-13.32957639981751,7.446451240960315,1.7965670530057105,1.2722855822017356,0.03798892279089894,-1.448883511330347,-0.6262774153828229,0.3361097741857449,-0.14219773528441543,,,none
0.8652020000000036,-16.320836073043893,9.555855026173692,1.0365144566283815,0.1372013961900564,0.529974981758669,-0.9513286229493501,-0.6026419819332777,0.40749509658300165,-0.06358169419177674,,,none
0.8747969999999938,-19.68337923339657,10.054344293464398,1.1404633978673204,-0.3494606643782331,-0.46908894539711105,-1.734673848541875,-0.6652186200799396,0.0871617041611227,0.13546652915115137,,,none
0.884401000000004,-21.548429937958474,10.561253058390625,1.6764091241183785,-0.2605762379125048,0.4932210232078843,-0.28153134172102096,-0.3697959001653838,0.09242581961215668,0.17412492194661033,,,none
0.8937179999999998,-23.777476999051,12.889231043782027,1.6158689616837278,-0.5077925457912502,0.5197686691656704,-0.6952236442562587,-0.45024070471561944,0.4533223593972593,0.07859820210948237,,,none
0.9032400000000038,-26.21442294200055,15.999453439331567,1.0918305852018255,-0.8929506634629073,-0.15844891552261517,-1.1683717584385536,-0.48715280390680854,0.6113232242122788,0.01685652361418453,,,none
0.9127590000000012,-27.7437593347424,18.207948151059117,0.7771299662743848,-0.14319526431525115,0.3573022846110861,-0.9380267430953033,-0.2998612701815481,0.4373473456223008,0.027076087856881842,,,none
0.9222789999999961,-29.60336067561981,20.142504968811988,0.20294951241826462,0.6656512671128371,0.27054318594675675,-1.0143013336060513,-0.3549979534046346,0.38430071634223006,0.007369643852679743,,,none
0.9317780000000013,-31.57249284156979,22.595203519015648,-1.0675196984920587,0.7705100000684066,-0.02508313584603115,-1.2993579566770717,-0.3634741064668583,0.49381791441155276,-0.11063543365188924,,,none
0.941352000000002,-33.33948144121091,24.60384202751958,-2.3824134876347824,0.21290120906207033,-0.10178051865970926,-1.5085174832691026,-0.31196657541033396,0.41174368188499416,-0.12157357555234688,,,none
0.9507809999999992,-35.15333091211446,25.324769797930994,-3.0428114183081845,0.28596234090037065,-0.037973963191430496,-1.0757419583763725,-0.32204661015390873,0.15976331597076576,0.021068700620150097,,,none
0.9604759999999928,-36.91584550443557,25.874879882723704,-3.6353173838738315,0.22111884587469804,0.034716296065254504,-0.7978736494813349,-0.31130012542854935,0.12849309907644058,0.03385976439519202,,,none
0.9699869999999962,-39.125336335759876,27.25344444644598,-4.870646632999788,-0.2167042358338972,0.23462864688685212,-0.5515548756912256,-0.374136496041877,0.3045876112614703,-0.049455841588727324,,,none
0.9794960000000046,-41.87258111760341,28.89926582348091,-6.3546260859046155,-0.6117914312060453,-0.14157092104229882,-0.6246178373229251,-0.4505839474887042,0.37561546940859886,-0.025861480415389847,,,none
0.9890049999999988,-44.39681588769754,30.363989293324025,-7.5133060494376815,-0.17476404706692164,0.18526785844280558,-0.5585617448040311,-0.40054949493596814,0.34430944952496784,0.028115176519235206,,,none
0.9983269999999962,-47.33511246192217,32.176228579401915,-8.96286157557936,0.3567378656119425,0.24389733144122477,-0.8385122758911785,-0.4455095635300503,0.43127606255078915,0.024366286112255428,,,none
1.0078439999999986,-50.78500932966018,34.48606969702188,-11.09508226882659,0.360964457261798,-0.005681249379547605,-1.183514109715359,-0.48752132674767085,0.5560429480517811,-0.03595062218213511,,,none
1.0174299999999974,-54.11246016563872,36.48872759741122,-13.089400321980934,0.23798594735389425,-0.07623046019963431,-1.4142023425637988,-0.4461338041581556,0.5059084066155971,0.001882252873153257,,,none
1.0269419999999982,-57.08212964364635,37.771996398318734,-14.419263900702196,0.33289324610739657,-0.05545080345260669,-1.4282121248076938,-0.39914267139177784,0.36248246639860576,0.10657518939133304,,,none
1.0364470000000026,-59.974597968470206,38.722583344296524,-15.8088849924133,0.28795688411350734,0.18224646722143015,-1.2800579538256782,-0.3893617177731242,0.30242603607542934,0.08705212851786817,,,none
1.0458779999999948,-63.22366561481112,39.52786753793114,-17.725250931328084,-0.18268040013580955,0.1001785333653678,-1.073081524620238,-0.43666751657580766,0.2999368779680898,0.02686881624877845,,,none
1.0553980000000038,-66.42858292397052,40.041091323175735,-19.663531947136825,-0.4042030939496566,0.1416360597171453,-0.77546230604632,-0.43412533809722154,0.25537299049903833,0.0225900327069917,,,none
1.0650869999999983,-69.41961689645191,40.41131443268868,-21.48789027100238,-0.19675461414027307,0.28860390761824783,-0.7400500352204853,-0.40198247337219756,0.23008400463529763,0.02151827394846184,,,none
1.0745939999999976,-72.87974735694793,41.04132121179367,-23.95314338621064,0.05312766969043647,0.27126529483429224,-0.8136397269690994,-0.43551239067705677,0.31910477142359744,-0.041507938582709715,,,none
1.0839250000000007,-76.81511972539649,42.00432259752076,-27.10481437788434,0.09213975092472255,0.016106052143757203,-0.9729150949567932,-0.4491842473414772,0.4281572701903678,-0.10854719989128653,,,none
1.0935189999999935,-80.6527160338017,43.089166943327534,-30.10029380757082,0.19378521437297738,-0.09132067763666252,-1.1508366945233852,-0.3929661458289773,0.4616229122970798,-0.0800649834516056,,,none
1.103028000000002,-84.22135587988755,44.14934997562995,-32.645861995907715,0.3652800691596535,-0.15204406465424938,-1.328762874293444,-0.33109325746931645,0.450463462305975,-0.016665273348699387,,,none
1.1125259999999955,-87.86109549630143,45.060580197939544,-35.20243430847985,0.30865124855536913,-0.07285998281965406,-1.3469330164260558,-0.32888483261694984,0.4407162061504149,-0.011996743294758163,,,none
1.1222179999999966,-91.47911504437971,45.60790495995599,-37.77845777277497,-0.38102021581434437,-1.1553802184398854,-0.25195134763777055,-0.3441696907759546,0.3908836548954312,-0.0005011352375759945,,,none
1.131652999999993,-83.4184360099629,45.535966869949206,-35.031491531085834,-5.381647739982959,-5.1421465265571715,6.044884820200743,0.9014914208277911,-0.6804575494368464,-0.6389066093483466,,,none
1.140982000000001,-52.95211096885069,35.796201821597684,-19.249232874776812,-1.591887678136143,8.838162590741268,3.141218111290009,3.252167603639806,-3.7771426572531364,-0.9548623820715155,,,none
1.1506740000000022,-46.05346921165416,31.783366442698775,-31.062582468097933,-2.522233684657908,0.6964164311934027,2.770933021424391,0.7081447623120681,-1.2139582306786025,-3.2740291270460533,,,none
1.1601870000000005,-51.55469736147446,38.33235910096026,-53.83533281424323,5.447882689870857,-2.8781814434916413,2.9451875817643485,0.21128236693905336,1.5849209997686338,-4.046955181571613,,,none
1.1695180000000036,-60.93014847050784,43.863103811637124,-70.13492490342344,0.6706902611444092,-4.459846919561884,-3.226645489307273,0.31126522655562555,1.7697178207565774,-2.0224482610599117,,,none
1.1791059999999973,-60.93513345444219,51.42026748816077,-73.53763319078868,-2.175985330402142,-5.549232338565422,-7.449137252872513,1.4379066124403004,0.47240534870455897,-0.6795403486388218,,,none
1.188533999999997,-51.646348530284165,64.5320019233422,-69.2753054933126,5.342511336834612,1.8507491076877607,-3.4153197892723055,2.7965812914356634,-0.10129664970903542,-0.7310841922783151,,,none
1.1981369999999956,-24.26561621049523,66.82987817894367,-40.50538844226566,-5.658965742014561,-1.3852467257339656,-7.358573560918084,1.6544748796933797,-1.574752946382737,0.7449983593095907,,,none
1.2077430000000007,6.937870681634424,59.47571087790998,-15.246901291993492,3.9224297943109216,0.3225102620248186,1.4772596123179287,1.8060593080517342,-2.5642051817346236,-0.5525596587410143,,,none
1.21725,14.071027929980994,52.974881029988005,-4.383285747683936,-2.3586279456994403,1.932338410984252,4.222632491480019,0.5609430987533689,-1.4162964751757605,0.9842696235193853,,,none
1.2362730000000042,-2.4898952968557753,60.624937528181405,-7.588920398232014,-0.6746744577790393,-0.8558591081180152,2.959364252726178,-1.3424766331579234,1.1758216573271545,1.2481674190502667,,,none
1.2456069999999997,-11.863516283039989,67.04829116371737,-15.118764019877611,-1.8527925255359414,-1.106813505250975,-1.9617238799834644,-0.5584855920912964,1.420194787039847,0.17995570966525573,,,none
1.2551049999999933,-20.949302305155665,73.1111871351496,-22.615456277694317,6.344338958427743,1.3829190368364908,-4.396684721324578,-0.1945301081137302,1.3461163187791219,0.21187637261286105,,,none
1.2646970000000053,-18.161771861578487,76.23104595634328,-14.992511227311887,-4.300697865593126,-2.542928603911855,-5.8005026709679655,0.34167398401531246,0.5438480540425306,1.0195071504849236,,,none
1.2743139999999968,3.0153129076399345,72.26548712585748,6.524250786039679,1.566912885849158,1.8150537636917232,1.517594417483473,1.0840950752289134,-0.8633634657430022,0.21138920759541413,,,none
1.2838190000000012,7.692691313269086,65.07801215356645,13.522233855186043,-1.6532746140835106,-0.14395724865923562,3.9440276407292227,0.587255746100553,-1.3568076403073503,0.5022130972420766,,,none
1.293344999999995,5.9091967225688435,65.4677768602776,10.532265215239141,-0.9418493917283316,2.6452254437008875,6.102217547307992,-0.16231301872172746,0.04516816854891234,-0.2825909222409674,,,none
1.3028389999999987,-8.49639725303925,70.30438969712132,-1.6481505056527876,-1.6047049829901865,-0.1601209639315547,2.5234529101318057,-1.1538605328157794,0.8757948339242773,0.2590583927257813,,,none
1.3123490000000047,-24.614421302395584,73.68255646065131,-19.37544051231113,0.15084608977914685,-0.393219255176697,-0.408422321885851,-0.8540582070207356,0.8418642997703984,-0.44159875922225383,,,none
1.3217629999999971,-41.302641135089274,76.06723135946338,-37.79790467324028,3.2480048353502124,0.3116719317238792,-4.649789179805764,-0.5354297619562794,0.8314111266774273,-0.43892280895386815,,,none
1.331353,-55.23133862604027,79.13053175206485,-51.05770891607238,-1.059374331544055,-2.082745190571345,-7.572670720678285,0.0014676765594504883,0.8533427488952707,0.09535955446090313,,,none
1.3407740000000032,-43.27299441768184,82.20325206900894,-39.045850817668786,-1.4571534464004903,0.6256456220516976,-3.6926804108694684,0.7073537225861098,0.15906049827061303,0.05249175400734294,,,none
1.3504179999999977,-6.896800132860264,79.98415253180056,-2.232884373392178,-0.29454982544315744,-0.4922770528234936,-0.2361946169145561,0.8869517263493185,-0.7859892006189488,0.1555771915599335,,,none
1.359897999999994,9.764146878482107,74.95376960052177,12.617775361409224,0.8654336358630659,1.1303533650195345,3.316478315081338,0.8096940331696002,-0.9274738618143625,-0.3209245771201409,,,none
1.3694039999999958,10.818395876743999,75.23617090970738,12.901772485441635,-0.7595835137638414,1.1494095159235094,5.433053148281329,0.040370250381733606,0.06724023219232524,-0.17773848736704032,,,none
1.3789179999999917,-4.348979499072227,79.0898506155856,-1.4451708144021613,0.2545939679658544,0.4079155612630232,3.049965030431747,-0.7454635434750223,0.6949177378900848,0.09083041621062714,,,none
1.3882609999999929,-35.280370086901996,81.89693997039531,-32.73349145933723,-2.971469988827797,-1.1809692859079086,0.389964092200273,-0.8044160913065752,0.8160916049539799,-0.13871447556732622,,,none
1.3979479999999924,-55.84969381165639,81.45549724676908,-55.882753163233,-0.3630176498621892,0.2994203727791198,1.612427431963825,-0.4842218769499336,0.35060576182098874,-0.5691627501776154,,,none
1.407276000000003,-50.52043799345092,79.83246228386619,-50.61107758818595,1.3687104965997954,-1.0032390031155518,-0.7406811305011355,-0.15680804717095836,-0.3335239946075525,-0.02034581534123525,,,none
1.4167990000000046,-56.2704854543992,82.40000145068528,-56.49856811957973,0.49830261452930774,-0.9876732428565864,-1.5821099824119556,0.30857156968125754,0.4485755532692126,-0.05097511617205954,,,none
1.4263939999999948,-115.40126716548792,86.3592420348038,-116.01676637026193,0.9334964170734587,0.1859950100836434,-1.763382078030692,0.6217372505384444,1.1445595438673084,-0.1193789065547246,,,none
1.4358099999999965,179.97569439938863,85.1245173424957,-179.9639277336488,-2.2476407675115158,-0.23123592248112593,-1.0272522485382634,0.6517694058583978,0.6561800256785136,0.10736801201330398,,,none
1.4453899999999962,151.7243280711808,85.42060691329058,151.3838527794212,0.5048376178825464,0.4484425472514129,-2.651778654822543,0.42891637131875837,-0.16838330580127905,-0.12857409235859352,,,none
1.454903999999992,149.6101328119457,84.93795677370106,149.7709879575286,0.8756857157113841,0.511217674112333,-2.156868061766003,0.07854018256140154,0.06761261111864034,0.07364462734974819,,,none
1.4643390000000025,170.47406718157143,83.73057175323488,171.36812656097084,-1.2422998894998578,0.11345743877413876,-0.43196609797872887,-0.3048393134720848,0.36086870774516744,0.1524525829723007,,,none
1.474026000000002,-161.69429428716424,83.84294472459133,-160.41094724216543,-0.32155760572669906,0.43026069252717974,0.7411056749603713,-0.589034296567182,-0.07927887033573855,0.07921503393788999,,,none
1.483538000000003,-117.03994135212119,84.06590219187599,-114.85456284692698,-1.0887839517199476,-0.09481158678929147,2.0966337127117805,-0.6456951837232218,-0.6467577082522148,0.1861868124810578,,,none
1.493040999999998,-93.65827197536085,82.54082473303266,-90.83197126064658,1.4018153067109551,-0.44011686232705444,1.858019102845087,-0.41213274645499065,-0.46026967972850896,0.11169604854264428,,,none
1.5025620000000046,-114.00868631687779,82.27030325937514,-110.96807693736245,-1.0445036632958078,-0.41047917202573925,1.9383708978277259,0.04822848252664324,0.5343658514767766,-0.009970213169830742,,,none
1.5120740000000055,-146.41847155866802,81.57958750614698,-143.83945295929058,-0.816423015884608,-0.06575902483184887,1.9985430577063612,0.4390728921278057,0.7931191382995102,-0.15326747220839404,,,none
1.5215940000000003,-167.66406731001481,81.1608528370886,-165.69200772636196,0.3585754806269321,0.37250839215744674,0.4122022673037046,0.5372331396045822,0.3444444393760275,-0.1684827487170376,,,none
1.5308999999999955,178.77441343957852,80.08417232152995,-179.28147462188622,0.16557821621569718,0.009061213476194225,-0.9480231155788587,0.4082712346283491,0.2705575381366047,-0.05775704200892668,,,none
1.540508999999993,175.88114277915895,77.42098219742937,177.15308999279117,0.09478366227711828,0.20060159260928243,-2.073462575872878,0.1221419526412958,0.5318172998458948,-0.16684469840616925,,,none
1.550023000000003,179.27004769785376,74.80964220166464,-179.69062644414504,-0.7896996363991097,0.23657397551976045,-1.7791256739309305,-0.15143456727573754,0.5264863951474551,-0.04566409457387908,,,none
1.559535000000004,-174.49371138657037,74.7712057046764,-172.8951089392357,-1.1125849243484072,-0.12378406222528837,-1.8939838653391303,-0.32686242311002517,-0.013782226102735336,0.13363976511515396,,,none
1.5690329999999975,-165.18988743191653,76.03999463511548,-163.17251608823133,-0.19262922311385536,-0.1722392470722852,-1.6533643055465814,-0.4051045544970764,-0.3456619456436168,0.10767531007756904,,,none
1.5786599999999922,-156.45492762496337,76.64073076316133,-154.03054132547305,0.06381973657812845,-0.23033104371694407,-0.5315452269062751,-0.3394263019165341,-0.2627302520941899,0.08897240403224804,,,none
1.588163999999999,-152.07370545250717,76.6847348012275,-149.34601653119526,-0.1086393100279678,-0.20919873565560285,1.0261482225139391,-0.17354007298505056,-0.10383282897849722,0.04772496983973525,,,none
1.5976709999999983,-151.7639933644071,77.24807709167621,-148.82823846471143,-0.3372672016777788,-0.18492362445621915,2.0161572508385643,0.046176157721154125,-0.10400027065218277,0.012666650569376619,,,none
1.6071750000000051,-155.97934135137427,77.78079556011541,-153.15338953656507,-0.24416797295164783,-0.0434446899555938,2.423970107469668,0.211063421588282,-0.004755622382704344,-0.0705790113757012,,,none
1.6166650000000047,-163.37978462477253,77.00560603475402,-160.64680676816974,0.6967440857317174,0.32801821533569125,1.614005570155718,0.2357069562110642,0.26947860029881104,-0.079037438383216,,,none
1.6261890000000037,-170.00702584668053,74.92214814990037,-166.54363350670548,-0.21618037968984044,0.013529662727353462,0.6159023645413476,0.1900686220424608,0.49080033632603176,0.08707831205080868,,,none
1.635708000000001,-173.4813591613712,72.68827285406272,-169.9885760788129,-0.47655108251622447,-0.10684272145448612,-0.5571473820427901,0.0983801617076929,0.47753580172578136,-0.04072190327911242,,,none
1.6451099999999954,-174.48214609203404,71.12723941740697,-171.24152464895855,-0.3171733262217552,0.21204619856821968,-1.5163604363687537,0.009968133272860951,0.31868664451322337,-0.08711829583055418,,,none
1.6546269999999978,-174.56426853532315,70.45357074235113,-170.85167377016347,-0.9264951169254749,-0.22270116788139727,-1.9283458038838577,-0.01585345383523671,0.13412704093154978,0.05920287121567439,,,none
1.6641449999999978,-173.44986968223233,70.36332181662867,-169.63661187039813,-0.4308312454066838,-0.02423388182008635,-1.8970259522026167,-0.07675779271677023,0.005019723195442403,-0.004785074838997396,,,none
1.6735590000000045,-172.1457194029242,70.74279029671135,-167.92165739240613,-0.41098379844177196,-0.046271977114253515,-1.1951178636896629,-0.0702666622616912,-0.09157602943237551,0.06033595539862942,,,none
1.6832800000000034,-170.7523399038282,71.58511722436221,-166.03411584236727,-0.3641998595305814,-0.13148627565861823,-0.24124207280326426,-0.04933995213820726,-0.18475382936167076,0.07389703874360161,,,none
1.692771999999998,-169.36574326112296,72.62549678371543,-164.38983745721097,-0.18576602708401058,0.02467258329813956,0.7647559717923167,-0.028826411320125835,-0.22332085889483094,0.02525607876697061,,,none
1.7022760000000048,-168.47682937418918,73.57744696356899,-163.18668429591133,-0.0160933511103618,-0.0074775281265249596,1.6671842538037953,0.003959766084463893,-0.1975571800883006,0.030726661862465882,,,none
1.7117819999999924,-168.5109911387759,73.77749812160292,-163.04168420769142,0.28938937856034946,0.08081288953375078,1.7147042921702027,0.0,0.0,0.0,,,none
1.7213080000000005,-169.9346636176912,72.77437142374198,-164.25263035293162,-0.13361453586801592,-0.007040371539117273,1.3377417823141189,0.021838957552677413,0.2159345762390387,0.007395691077528833,,,none
1.7308099999999982,-171.75894163921012,71.3657237452282,-165.9220405068187,-0.1548918581757495,-0.042293380545185326,0.5460193213101476,0.03573265906794851,0.3016083537354713,-0.0038061401895329245,,,none
1.7403270000000006,-173.5778345746172,70.00579718253731,-167.60567674952603,-0.15145855007547618,-0.06614175548560641,-0.43501119167047897,0.05453989415172802,0.2927631462424513,-0.013890895898548524,,,none
1.749644999999994,-175.1942188929619,68.97598046037841,-169.09406444486703,-0.46173636784405947,-0.08896601788721663,-1.2234554675129317,0.06907327085558669,0.22496981449633977,-0.020874948309176616,,,none
1.7592579999999955,-176.5581720856878,68.30811438437001,-170.317480595343,-0.6712515485293375,-0.11053869888720258,-1.5332596469146165,0.07371213803025722,0.1494650998273625,-0.01839940960188024,,,none
1.7687500000000043,-177.59492286799235,68.2268603600979,-171.06564555872487,-0.6866846617524893,-0.10318917389207535,-1.436318334954602,0.07313344723313256,0.028593360823078676,0.009252773459078573,,,none
1.7782020000000003,-178.08766668233085,68.83021524779878,-171.18037833610526,-0.466128294340352,-0.017151840698815427,-0.8933995740909706,0.05451075475289757,-0.11374430333896413,0.029183760590904273,,,none
1.7878859999999932,-177.92878909924158,69.94182530884659,-170.55563274378596,-0.19148719081418308,0.04017589928105168,-0.25839330719315284,0.024688246504727576,-0.22157371156781147,0.054734196306588094,,,none
1.7973799999999969,-177.12215561001028,71.02689192860822,-169.25172845814154,-0.11978047977341395,0.023790514995153663,0.5862066007466409,-0.014596924544651637,-0.22346498333773998,0.07082242717469846,,,none
1.8068960000000018,-175.8970376512741,71.82032283119666,-167.593129473855,-0.05605838386904981,0.01761426427229679,1.1516198042106243,-0.044329089651392525,-0.17144171920204612,0.06501723675852648,,,none
1.8164119999999926,-174.9312128727617,72.22231642811771,-166.17790148342146,-0.019909772807281925,0.03187206392152415,1.281889748131451,-0.039671614881029715,-0.09202101498775042,0.0671108840548912,,,none
1.8259119999999953,-175.0019040256235,71.99989594146508,-165.8779938578265,-0.1390861478266356,-0.10118877514590038,1.028303663086128,-0.0065915347287451714,0.04428005916363104,0.04381494997720599,,,none
1.835419999999992,-176.17182412132973,71.19906512811477,-166.86630609129088,-0.01789267243026505,0.03824467394880403,0.28961571118650614,0.03382410841589545,0.17335750335016845,0.0004272507853128136,,,none
1.8449489999999926,-178.30526962682643,70.11762797190326,-168.68504591387756,-0.3879586657810244,-0.10500265982553907,-0.166668009978012,0.09208877334916112,0.24170926823810296,0.018055860926352987,,,none
1.8542780000000008,179.4926273994014,69.40319825864539,-170.79568819255192,-0.5213178706608003,-0.04663004108200349,-0.829927375672081,0.124303035064821,0.16809339473368712,-0.03572227321360507,,,none
1.8637689999999978,177.43844320451785,69.19096090513392,-172.77288762280284,-0.5392351207772882,0.012807801176158623,-1.1236495018809078,0.13766445853950637,0.06298907171388059,-0.03681345902984535,,,none
1.873310999999994,175.84992511733182,69.395862305048,-174.15910869467484,-0.5392417796743747,-0.015457978620769069,-1.1510015870534474,0.11636774533469763,-0.027807766467179397,-0.014845138013820114,,,none
1.8830019999999976,175.10055196127843,69.92948601802787,-174.6668219950107,-0.35608449607607323,0.05928631374332848,-0.7408284652547583,0.06245049492054441,-0.10119666115518636,-0.0014093102062883607,,,none
1.8925279999999916,175.1476870975826,70.89055548046551,-174.2093408984098,-0.3038264467327323,-0.006043548436574399,-0.18731181139833838,0.01586158709694943,-0.19190143115680525,0.04184903961689235,,,none
1.9020140000000012,175.98948795514454,72.12303785634607,-172.95507908650544,-0.17467119689705643,-0.041269214387347465,0.3545063372223458,-0.025032687267837847,-0.2513753660829316,0.05043531676266787,,,none
1.9115179999999938,177.1979357531865,73.22582155262354,-171.31881368511148,-0.07226936198121844,-0.025325811733490345,0.7504675664020733,-0.04068990234313968,-0.22876598900557368,0.05718135195552712,,,none
1.9210289999999972,178.01415651073984,73.87562424490643,-170.0671730372244,-0.0690703488449423,-0.09842356542536503,0.8946587838982726,-0.024365443354042136,-0.13599393082703906,0.06156703423976926,,,none
1.9305319999999924,177.70828134061387,73.98703626327912,-169.97127001029367,-0.13750528977018037,-0.09398829703883312,0.7493663891094213,0.0205807253915382,-0.019029111914881606,0.051964644728203696,,,none
1.9400350000000017,176.00690781505108,73.68699136902468,-171.26091271246813,-0.23778990489421029,-0.060008563695760186,0.34816293982715196,0.08358973156827995,0.07484899801445682,0.043012316795996555,,,none
1.9495679999999922,173.34028353071557,73.19130806092892,-173.58150811072434,-0.3217691895056139,-0.025406484521797376,-0.10735267148550541,0.13748511109623665,0.11863355389274644,0.022223227463583472,,,none
1.9590650000000025,170.41274573429246,72.77997702537002,-176.26681143211135,-0.41456907195085785,0.032990047789148956,-0.5460426119368876,0.16328707312610746,0.09740257514139468,-0.0014155260717739907,,,none
1.9684159999999977,167.83023244106784,72.63981135749037,-178.66944198509327,-0.4829561566839634,0.0672280902634516,-0.8015460015150178,0.15210854715115615,0.03500318411882862,-0.012616512736909627,,,none
1.977916999999998,165.97274521190113,72.89013761972492,179.66357706199722,-0.4581633866702874,0.08433059466601536,-0.8351307909927458,0.11059157201492723,-0.04904028685978378,-0.009039159020386614,,,none
1.9875879999999952,164.9487068843239,73.59194476575,178.8965453245625,-0.37939245539827754,0.05208443600440497,-0.6248039139992622,0.057526898934949555,-0.14124104732254253,0.005734309790988961,,,none
1.9970980000000012,164.6613897306589,74.68919016383695,178.90514587516415,-0.2712961815612992,0.0008196303665554683,-0.28424100340967223,0.011872393733009816,-0.22009573804913157,0.017147810858836796,,,none
2.0066320000000033,164.78868110107078,75.96432492869782,179.36210661005344,-0.1988519726464194,-0.05820984672420856,0.12342910781642982,-0.0098509635230783,-0.25543883807966383,0.025921862308338782,,,none
