timestamp,roll,pitch,yaw,acc_x,acc_y,acc_z,gyro_x,gyro_y,gyro_z,acc_mag,gyro_mag,markers
0.0,28.610063587820534,-3.5762240653144386,-31.38873199924503,-0.05848866646201819,-0.022803056877488414,0.0194108453400777,0.0,0.0,0.0,,,none
0.009473999999983107,28.527080098635032,-3.6297283253119956,-31.31201788507079,-0.09416586180286031,-0.011880603178285369,0.02811214272216877,0.0,0.0,0.0,,,none
0.01902099999998086,28.425321121480344,-3.6377321332823866,-31.265724425854856,-0.12181111287840278,0.00044330484768826295,0.033559519940782934,0.0,0.0,0.0,,,none
0.02854199999998741,28.318693657521216,-3.591121748509526,-31.247131066775243,-0.13908434116207727,0.011904964302208474,0.0384984431330563,0.0,0.0,0.0,,,none
0.03804900000000089,28.22393324621721,-3.5114941749659923,-31.247022186163928,-0.133595637907273,0.015428470150672726,0.03941691849275835,0.0,0.0,0.0,,,none
0.04755599999998594,28.15337471534223,-3.4203164931462693,-31.22758283890058,-0.09726920330034956,0.026643317453541794,0.045954100815454826,0.0,0.0,0.0,,,none
0.05701700000000187,28.12103772186567,-3.3419104022954786,-31.18962889540105,-0.06299383284901021,0.012088226758576199,0.03825194107271368,0.0,0.0,0.0,,,none
0.06653299999999263,28.12718419678648,-3.2985528376560196,-31.147645310629144,-0.01176143178078514,-0.015444019356552652,0.03604670961629414,0.0,0.0,0.0,,,none
0.0760389999999802,28.16150916996475,-3.300173926938014,-31.12364331051657,-0.011076595604324562,-0.014560455266185065,0.03392242168245103,0.0,0.0,0.0,,,none
0.08556600000000003,28.217463553487143,-3.3260978982068585,-31.13505328215372,-0.02542829733789839,-0.04023919032397197,0.01650844324599285,0.0,0.0,0.0,,,none
0.09511499999999273,28.278916439844064,-3.353637771197755,-31.19368181714818,-0.033576023435673966,-0.05326768221601392,0.019327558205734514,0.0,0.0,0.0,,,none
0.10457999999999856,28.33074809174563,-3.3610046703758503,-31.29686396030605,-0.06306377659549224,-0.0527387382552694,0.01692038960915956,0.0,0.0,0.0,,,none
0.11408599999998614,28.362578805634627,-3.328231318109119,-31.42734556217782,-0.0901565123627268,-0.048706153855020924,0.016284559312329354,0.0,0.0,0.0,,,none
0.12363999999999464,28.366224232658503,-3.2520690022401295,-31.560731900433076,-0.10863841175363123,-0.04351743031899604,0.017361497239641942,0.0,0.0,0.0,,,none
0.13315799999998035,28.340989699719675,-3.1458400070864876,-31.67529800712428,-0.11248696251662445,-0.04076332502887491,0.018700068678207483,0.0,0.0,0.0,,,none
0.14265399999999318,28.2925042997046,-3.032086740202688,-31.753935098413628,-0.0994127433479564,-0.04291799432453964,0.02167372455695767,0.0,0.0,0.0,,,none
0.1521229999999889,28.228821252661387,-2.925098007882723,-31.790091757932156,-0.07917730716966709,-0.04827108585551474,0.02962526292091316,0.0,0.0,0.0,,,none
0.16168299999998226,28.163043721841937,-2.848292706803028,-31.794863283135776,-0.03936055471222954,-0.060413649278176745,0.032628895379013326,0.0,0.0,0.0,,,none
0.17114999999998304,28.099905670053456,-2.814393571549435,-31.790889397538724,-0.0356766184579807,-0.053966750196340584,0.038516861056010446,0.0,0.0,0.0,,,none
0.18065699999999651,28.038693182666293,-2.8245622638866146,-31.79993337142306,-0.03332293922191746,-0.049846750033756035,0.04163045028734286,0.0,0.0,0.0,,,none
0.1901770000000056,27.983062642826614,-2.870698561884623,-31.835910884198626,-0.03189259664023368,-0.047467305381815574,0.04100687954555738,0.0,0.0,0.0,,,none
0.19969299999999635,27.931382858637203,-2.9371417264144366,-31.901866486727762,-0.03262165443817649,-0.04816381915573715,0.04368461379492515,0.0,0.0,0.0,,,none
0.20922400000000607,27.87919655626967,-3.00841204551869,-31.921545342167708,-0.03410006900724271,-0.05006747752735687,0.04699188547439906,0.0,0.0,0.0,,,none
0.2187059999999974,27.827463809107808,-3.0626540042012675,-31.94053929484138,-0.07555477013630936,-0.02647954325467381,0.050496038164418874,0.0,0.0,0.0,,,none
0.22821500000000583,27.772933470156456,-3.0911374081008507,-31.95203447055647,-0.0994663485365754,-0.01116599386665939,0.05502305242085476,0.0,0.0,0.0,,,none
0.23772399999998584,27.715372405201983,-3.0901470341877317,-31.939586825895738,-0.10595570725627372,0.01800826446217807,0.07235182042034001,0.0,0.0,0.0,,,none
0.24728500000000508,27.662535853691715,-3.0643814058717362,-31.899960848254572,-0.11153772529701522,0.020664338669758572,0.07343484487882973,0.0,0.0,0.0,,,none
0.26630199999999604,27.591005852576824,-2.976130240141174,-31.789838227458823,-0.08584640524864205,0.006302303077185594,0.07242536284307742,0.0,0.0,0.0,,,none
0.27581499999999437,27.585359513477247,-2.9534899372949583,-31.702699306531052,-0.059979738723744715,-0.006978906514075021,0.06934617173460282,0.0,0.0,0.0,,,none
0.2853149999999971,27.600556866561547,-2.96723909947645,-31.630295339168537,-0.021612671390285495,-0.028386102153972272,0.06781986254609722,0.0,0.0,0.0,,,none
0.2948379999999986,27.636373002786204,-3.0125182258965957,-31.6025267646962,-0.01844667154610521,-0.024184759788042246,0.057721830554443646,0.0,0.0,0.0,,,none
0.3043399999999963,27.690884369018796,-3.087524024937972,-31.606733729620945,-0.016533792472601026,-0.021573354523685546,0.05144570580741352,0.0,0.0,0.0,,,none
0.3138479999999788,27.761786333149672,-3.1762009658520887,-31.613367835080087,-0.014659105794232338,-0.019020052945257337,0.045299193586302425,0.0,0.0,0.0,,,none
0.3233579999999847,27.84473740041391,-3.2516145111914883,-31.604706999875233,-0.05223873098139731,0.007099274037571269,0.03770499086415033,0.0,0.0,0.0,,,none
0.3328339999999912,27.937959184673392,-3.298651513118033,-31.58146285549516,-0.07742328904640317,0.0237852928461448,0.033794015023488534,0.0,0.0,0.0,,,none
0.34238099999998894,28.036360045350506,-3.3127144309428407,-31.56653857915569,-0.09535278001571956,0.03384536996538824,0.03392080920083515,0.0,0.0,0.0,,,none
0.3519019999999955,28.12876850712337,-3.2954496484411897,-31.568553868512623,-0.09803700321664342,0.03460774161493424,0.03506418012836705,0.0,0.0,0.0,,,none
0.3614110000000039,28.20702860018784,-3.2582910183436797,-31.55541802949611,-0.10374297301776403,0.0006836283177018845,0.0180488662522872,0.0,0.0,0.0,,,none
0.3709089999999833,28.26918827151577,-3.225828303310029,-31.54809797280064,-0.08717586043060983,-0.018502475825806552,0.016111568172816292,0.0,0.0,0.0,,,none
0.38989499999999566,28.322490723759774,-3.242467371604365,-31.530621083738183,-0.03451572688030784,-0.05566211532308074,0.00549169984064818,0.0,0.0,0.0,,,none
0.3994069999999965,28.32614178680186,-3.292465351321597,-31.52538514170635,-0.030534868024049262,-0.04958863885516264,0.0017289181373443148,0.0,0.0,0.0,,,none
0.40890999999999167,28.320836820733337,-3.363257606184142,-31.522549356533077,-0.026581727138368233,-0.042987516946359446,0.003128280623366102,0.0,0.0,0.0,,,none
0.4184620000000052,28.31147361681482,-3.4354149518188026,-31.501161984176417,-0.024484081422435067,-0.038327057018678154,0.014148574319034633,0.0,0.0,0.0,,,none
0.4279719999999827,28.300712825346228,-3.500107211451272,-31.46838124390362,-0.036574164193854765,-0.001947699034706276,0.036769365684811574,0.0,0.0,0.0,,,none
0.4375,28.287137451409244,-3.5497200003244007,-31.46191786419346,-0.049729484551220206,0.0011291542652108603,0.04386193109380818,0.0,0.0,0.0,,,none
0.4470100000000059,28.277531203937134,-3.586735458028348,-31.48137331523982,-0.04953430340232137,0.0005181330037119287,0.04469349967527975,0.0,0.0,0.0,,,none
0.456468000000001,28.279528849459545,-3.6163865686815164,-31.508417618134956,-0.044601293864345436,-0.002102609630011043,0.044419246293662784,0.0,0.0,0.0,,,none
0.4659680000000037,28.296208311143346,-3.657320894014373,-31.534847068548615,-0.01262148771039682,-0.015986055988678232,0.03749417162204664,0.0,0.0,0.0,,,none
0.47548499999999194,28.328977899238172,-3.7167490834409858,-31.553719618882152,-0.00827612671277137,-0.010437994915699071,0.024481299947783457,0.0,0.0,0.0,,,none
0.4850500000000011,28.381302202271897,-3.7857696176058466,-31.563840369790512,0.0,0.0,0.0,0.0,0.0,0.0,,,none
0.4945060000000012,28.447292857030877,-3.8605599954040293,-31.55734927470406,-0.022401078079189,0.013758259249575987,-0.001774007368287405,0.0,0.0,0.0,,,none
0.5040259999999819,28.525586907090606,-3.9347689962160413,-31.522911706688625,-0.024128986129404933,0.014799537152371159,-0.0019469726944359163,0.0,0.0,0.0,,,none
0.5135239999999897,28.61942188329859,-4.003868308926122,-31.46886034151383,-0.009466327800041674,-0.011790181052390776,0.02741880836300785,0.0,0.0,0.0,,,none
0.5230479999999886,28.754761157283603,-4.108581700998523,-31.38806959654925,0.041678120708128416,0.0058628631402029546,-0.046469369859204815,0.0,0.0,0.0,,,none
0.5325479999999914,28.882454943934796,-4.360941969257935,-31.282205130695136,0.12741354915413464,-0.08294650380730509,-0.06956172768413323,0.0,0.0,0.0,,,none
0.5421110000000056,29.044924599170873,-4.6808955746005445,-31.131924173865745,0.1805784107881978,-0.10906913637781242,0.017273354580824483,0.0,0.0,0.0,,,none
0.5515409999999861,29.106134302070956,-4.825876950850211,-31.015165871615512,0.3783092287356007,-0.017644991192904812,-0.2959765640429957,0.0,0.0,0.0,,,none
0.561048999999997,29.25728838025191,-4.972752953259739,-30.92628011833966,0.3800532408655953,0.0773091561861117,-0.6226997715108106,0.0,0.0,0.0,,,none
0.5705480000000023,29.737543341493733,-5.1962102528204515,-30.99428839786319,0.25827450425194387,0.2016676248289576,-0.6143128423867278,0.059172536040205476,-0.0876198112496681,-0.018275793070018788,,,none
0.579874999999987,30.36671769151917,-5.4554832204281025,-31.342156082878574,0.10663543351157795,0.3616997505130045,-1.1362140092973758,0.08052513221467994,-0.10931055242954654,-0.07103884357873315,,,none
0.5895229999999856,31.482118832825442,-5.632351930743298,-31.854109325555793,-0.1997971065521114,0.17523798237210664,-0.8277393129077858,0.17090349011041406,-0.14652287986928572,-0.09898182632786279,,,none
0.5989019999999812,32.83181205666148,-5.5170381400939155,-32.335535487238936,-0.25684309696491975,0.19680719572102826,-0.9831506556808757,0.24024294007445915,-0.12317827341517282,-0.0883426030028095,,,none
0.608413999999982,34.12650143145968,-5.187922257449851,-32.705021851887956,-0.24340975098618808,-0.07849397714780888,-0.9357295163439027,0.2531248020564918,-0.08306194137285162,-0.06278871752199358,,,none
0.6180090000000007,35.49786789236812,-4.8199853172455525,-32.86677163022637,0.030634952086723424,-0.1377020685838841,-1.1913688565724063,0.26992442300131225,-0.08605628655955956,-0.02056235672273282,,,none
0.6276259999999922,36.84692477602236,-4.604524994685073,-32.852637892225786,0.08255650249494949,-0.3166296005683596,-0.6992760518267671,0.24962753233196633,-0.10969172898938566,0.011452277261078163,,,none
0.6369449999999972,37.57380148479558,-4.622812442490204,-32.80349479540745,0.2049920487194045,-0.28898488816767076,-1.1316146636258366,0.11996999263837738,-0.08166478980248157,0.009253257901391384,,,none
0.6464499999999873,38.29475529350668,-4.903921522409168,-32.81600887791159,0.0583140878754098,-0.22323203000094544,-1.0690198062514644,0.09048617681657944,-0.12521870343066205,-0.0033951262256352033,,,none
0.6560969999999884,38.85117814288189,-5.27141674195293,-32.94977910819761,-0.16841843103858126,-0.10453476588199784,-0.8601412540937935,0.053326879194656784,-0.12202290753252293,-0.032621246158663096,,,none
0.6654779999999789,39.03116736461147,-5.480659237238422,-33.21966527155886,-0.28354043013348373,0.049441599507569066,-1.060973052586424,0.007219743122685817,-0.05469729660109883,-0.06418857352344146,,,none
0.6749949999999956,39.203363070590214,-5.41951801541834,-33.58634143736676,-0.3422879643474737,0.09846798556980559,-0.9261729046684496,0.035393718593354336,-0.008671458657889188,-0.07781167226916594,,,none
0.6844940000000008,39.1984622703939,-5.096047263416665,-33.9783834147087,-0.19638356063094894,0.06434552063731391,-0.924409420139499,0.035184411461266225,0.054384762710573555,-0.08533730067371455,,,none
0.6939669999999865,39.11598545846229,-4.641156051065034,-34.32173814037797,0.02992322265454495,-0.026994689819108728,-1.0096074103229762,0.03748803789639508,0.08462757038897349,-0.07681082826221128,,,none
0.7034769999999924,39.13684384987301,-4.273946390720099,-34.59422447841893,0.20733154556291447,-0.08978620640422033,-0.944127630445746,0.04502019331832609,0.058282829510220575,-0.06026837023935292,,,none
0.7129929999999831,39.15806399852979,-4.157374275487441,-34.8051455786539,0.2793255158795257,-0.11250789502503304,-0.9900717348947395,0.016763395212416484,0.016781924806860398,-0.05023078026178786,,,none
0.7225420000000042,39.34314890895082,-4.304614492465175,-34.93667753439388,0.2055824043607612,-0.034046960708604086,-0.9951267295242819,0.013490150882753935,-0.0453176953819433,-0.0372979247963333,,,none
0.7321790000000021,39.6727835462275,-4.603057341468141,-35.03589721700827,0.00172376238578764,0.06399933013439758,-0.8988490016476125,0.019703699717907072,-0.08668695329713182,-0.029929732712497294,,,none
0.7415570000000002,40.05340188289708,-4.871435889005382,-35.152074223192955,-0.14711094250852538,0.16098952249894838,-0.9666182166564087,0.03130030963353669,-0.08762675449979117,-0.03090331978264979,,,none
0.7510659999999802,40.54417434437158,-4.9478409473592,-35.264858906489536,-0.2356928822336363,0.1548568822704957,-0.9130041671728177,0.07123315255899156,-0.0688983968652229,-0.033019388376910576,,,none
0.7605389999999943,41.01760080444984,-4.763552411675663,-35.40604162907481,-0.1817566645171889,0.08218027567936785,-0.9487345257859866,0.09841867226341885,-0.024444660869542,-0.04002389354646079,,,none
0.7700930000000028,41.451027782201145,-4.411338353680177,-35.623071146552746,-0.048677314853687634,-0.05276135899502014,-0.9934824455418957,0.11138291095813689,0.007223457243549719,-0.052081396817673,,,none
0.7796069999999986,41.82924850096658,-4.053170988905118,-35.90165647602562,0.07846847293274507,-0.17173547511833576,-0.9916841195496645,0.10319247347067052,0.014112999597177692,-0.06383113742293366,,,none
0.7891209999999944,42.08834858857786,-3.8316113364786695,-36.21807677726416,0.1321671278638132,-0.2120767907387632,-1.0309812471711157,0.06794976961603406,0.0054256572540647184,-0.07085378725170921,,,none
0.7986259999999845,42.282660499322155,-3.822810013151007,-36.52964978175462,0.07670044869211978,-0.16321758920011914,-1.0159690505931323,0.03230698271883207,-0.021597951512778903,-0.0693345794023593,,,none
0.8081439999999986,42.411219002406824,-3.9809939717704323,-36.74044917740278,-0.040835358502426956,-0.058467249718543175,-0.9692631334481705,0.0017359480077921833,-0.04074829527912454,-0.05935481071157324,,,none
0.8176009999999962,42.490405982210994,-4.167600347753798,-36.85938729845625,-0.13684114349364776,0.06323536727515576,-0.9579348449066997,-0.009690400768185635,-0.039408298124936625,-0.04201768669646167,,,none
0.8271119999999996,42.58387658930304,-4.254121905590653,-36.91073081236601,-0.16715153597693103,0.13375963301628266,-0.9226900543577938,0.0,0.0,0.0,,,none
0.8366629999999873,42.70025770320678,-4.1782894163103625,-36.90606212556571,-0.10410725816529454,0.12486012956875057,-0.9173231888599885,0.0,0.0,0.0,,,none
0.8463260000000048,42.880358674709576,-3.9594914366008354,-36.94894989742682,0.013867970821206265,0.05822822095458212,-0.9337765675258084,0.055061023490890905,0.013473625089226577,-0.032500313860945165,,,none
0.8556920000000048,43.13405668727216,-3.6897634571635884,-37.10233719573278,0.10599280607696944,-0.026804663601482547,-0.9390245485214225,0.07297515698029979,0.012671098982121001,-0.051117810575182915,,,none
0.8652040000000056,43.431784675839495,-3.4802666757597946,-37.36968482141276,0.1352367456919294,-0.0800634410350873,-0.9738981435402604,0.07275360088751158,-0.002541617103263764,-0.0718525963857299,,,none
0.8746559999999874,43.7714459903844,-3.3889840710465515,-37.67932694751219,0.06923334507200296,-0.09076606519183963,-0.9719196826330638,0.06499991564073429,-0.026796825958961372,-0.08152626868465908,,,none
0.8841869999999972,44.1048519729003,-3.403288119531079,-37.94794177939346,-0.042145230350848426,-0.05358588113098185,-0.9707748162199098,0.05093597538047308,-0.043075047076116924,-0.07499634846510843,,,none
0.8937379999999848,44.40079921068989,-3.464994338000121,-38.106157772169595,-0.13665069891603243,-0.0056465786371785315,-0.9694153964610942,0.03903578644797781,-0.04613280939530235,-0.056035012515757356,,,none
0.9032420000000059,44.64528363467441,-3.498930202181242,-38.14479320953833,-0.16733568620436287,0.01608503722353214,-0.9522578873624375,0.0342862245992738,-0.03547649591342254,-0.03311980721820236,,,none
0.9127560000000017,44.81882817285447,-3.4537351575392012,-38.11719509162177,-0.12236707191885479,0.00640349356656664,-0.9434267135269488,0.0,0.0,0.0,,,none
0.9224020000000053,44.6371514176156,-3.3532567159372153,-38.153315356297085,-0.8452572533387059,0.45024856523893164,0.7286008244752017,-0.016176710094004267,0.038232794198832784,-0.03122881545960572,,,none
0.9319739999999967,38.09991458499412,-2.6133372922563005,-38.52201327099946,-1.1058315959817784,-2.0092316676380397,0.6416867789497642,-0.9335867171501647,0.9269870523390635,-0.14189543830113166,,,none
0.9414709999999786,51.46314790042899,-4.04496133748584,-37.68632159448347,-2.4577431921338797,-1.4021233827766082,3.2480332744677733,1.9292766100548053,-1.8698005079635278,0.2827294131971201,,,none
0.9509379999999794,56.90473575989509,-5.127338024340421,-38.234816387116965,0.6340907613100489,3.414535076327604,3.135973700808731,0.725055701627984,-0.8372005834483733,-0.07595884963348139,,,none
0.9628510000000006,42.96713057909625,-3.685950827372275,-38.867257384435426,-0.5561759290491786,-3.368156000011295,-3.9424459511174637,-1.996633738065525,1.9594900851964097,-0.3331182261945861,,,none
0.9699039999999854,48.15161017040136,-1.3802098526702529,-37.119079228315414,1.8877400827977182,4.832403226057706,-6.1765131195043015,1.1012929196464873,-0.2757518473300035,0.4151907379663465,,,none
0.9795059999999864,54.179765136415,-1.427456836411141,-38.17835120527779,-1.254995275519649,-1.1553699598267355,7.550816980727746,0.950647374710921,-0.7433341613938809,-0.2129187829669865,,,none
0.9889169999999865,43.26687004633052,-0.513934305828796,-39.5079151704623,1.2650461626982605,-1.9730076189012267,-4.863116033945918,-1.5867059854171133,1.5131769654918648,-0.2915187477650956,,,none
0.9984179999999867,46.555088539087464,0.688231601367374,-38.39611732590583,1.6839452990666144,1.8884635227506101,-3.847874677676878,0.6632353171422014,-0.22722394272196364,0.2374281654466068,,,none
1.0080299999999909,50.268511531546025,0.05611874855939648,-38.48448626289329,-2.144550691303897,-1.5618884607393106,6.358462108041901,0.5042828554381132,-0.5608931577706179,-0.04510615944007245,,,none
1.0174519999999916,42.95625854946754,-1.015187767839818,-39.782116683076126,1.9908766641159088,1.2413183759391353,-6.585736193694305,-1.2712515479532571,0.7574828137418038,-0.27918662580179787,,,none
1.0270849999999996,45.263217858010705,-1.1290391220100704,-39.04638328572622,-0.7835402319688376,-0.3418309679558828,-0.45383716650505607,0.34246000166627544,-0.31075284291023364,0.14928750515303638,,,none
1.0365699999999833,46.95222158144998,-0.4873003029010963,-38.018269690879265,-1.3942490272780195,0.9996344177446369,2.463603387110765,0.3446665293974788,-0.10995790102902155,0.19909605324107296,,,none
1.0459789999999884,42.26620851513137,-0.3556908378973877,-38.90637728273306,0.3991042362013284,0.22559902387293007,-3.638992511799021,-0.7185536915437911,0.6040052876715991,-0.1922440727843845,,,none
1.0554149999999822,43.71203389038326,0.6048561824817092,-38.863876607011235,0.4557000547625639,-0.3043921697756788,-1.1421735261273895,0.3461207677663963,-0.03188235602031198,-0.0018213430584011756,,,none
1.0651029999999935,44.81749584725873,2.292163715483352,-38.35999711043233,-0.08554250800082076,-0.04050175192455443,1.2769170249527175,0.3837252567886301,0.12608295826774385,0.08580712644759755,,,none
1.0745210000000043,41.90022191807058,2.6958492060177432,-39.43657587845469,0.6058451486402656,-0.023196336686041083,-2.9670086368090005,-0.40347070420965053,0.42935538012337354,-0.19012242909774765,,,none
1.0839409999999816,42.92707642555972,2.466182955729208,-40.33322639435643,0.6183096169985126,-0.4859918482570269,-1.2732295081639144,0.12811737954841787,-0.16702909426641618,-0.18879814194177622,,,none
1.0936289999999929,43.80550698391274,2.8960412047055364,-40.05107235414036,-0.5555369169449352,-0.146328437272585,0.8002611045546727,0.1898131601851429,-0.04748015922864661,0.029505869858558076,,,none
1.103055999999981,42.294787190016315,2.8179633260272063,-40.21002365143383,-0.19825598439151002,0.845553257741323,-2.4656629852800243,-0.2412058487547212,0.18261816181014462,-0.031857993382941784,,,none
1.1126620000000003,43.02293908151194,2.377556824524532,-40.39571921361399,-0.3215941025730875,-0.2847830726303432,-0.6012931689439909,0.05413719858503678,-0.16144386184354662,-0.058401221210391485,,,none
1.1221840000000043,43.42527775015165,3.0931728571709654,-39.65454596358784,-0.2386860816118666,0.07363363414986636,-0.1470913346414597,0.15377260240092103,0.05806118482062561,0.1348494566020417,,,none
1.131592999999981,42.55482770320766,3.9610613649290234,-39.267546028572646,-0.05381812055699631,0.35130475329394395,-1.8354460194033868,-0.02385538024600584,0.2447552825294751,0.08819167676851439,,,none
1.1410149999999817,42.9833575699523,4.197935889694778,-39.71574530701301,0.35816173897609754,-0.36840188461049816,-0.7726313141935806,0.09621433297963726,-0.017837307073591456,-0.0958592810450748,,,none
1.1507049999999879,42.59319179138873,4.825437031166163,-40.04884278808095,0.25508806478823975,-0.578805513724948,-0.6133089105270638,0.020802377288804567,0.14636043396850398,-0.06057089993670649,,,none
1.160129999999981,41.94130067057382,5.473208608780393,-40.40280085387376,0.07110871412519063,0.3547378581027697,-1.8344955977680264,-0.015497926349852299,0.18299361936378547,-0.05917703179871091,,,none
1.1697230000000047,41.971257766261054,5.348162461415461,-41.29861025120297,-0.23235953634213397,-0.20926954532005432,-0.3893888297915464,-0.011873719063861494,-0.02286595131549518,-0.17994223999865325,,,none
1.1790699999999958,41.17830972963298,5.47258168180829,-41.797956369835795,-0.1410053194657314,-0.05154494101146114,-1.053130558182011,-0.10178574606103162,0.12348024185301448,-0.08502032476489019,,,none
1.188569000000001,40.833197448929575,6.05616961872104,-41.58381729618557,-0.35860797210719486,0.3408980443061272,-1.0841291708982435,0.02638764360311216,0.13300290677665733,0.04980395758840756,,,none
1.1982069999999965,40.55787102436349,6.336772193195519,-41.47784111517335,-0.1426207078415384,0.09285254059201077,-0.6746594405605904,-0.003773627359713231,0.07840766627019859,0.027164460009724,,,none
1.2075920000000053,39.930585540166184,6.621319717382636,-41.370495429742114,0.23159303842933224,-0.20477792800242986,-1.1535418355107705,-0.05588383149378399,0.12530496151300857,0.035661375158306904,,,none
1.2170930000000055,39.818152419556014,7.242628247224453,-41.02305046067701,0.21186467241578466,-0.053608872425395485,-0.9209933170843287,0.06513613348513156,0.10834714835341963,0.07227353733998289,,,none
1.226602999999983,39.46989972091865,7.535142942595711,-41.1855086670415,0.19656683695569035,0.06531733460688516,-1.0554581666895142,-0.013601915856991727,0.08960090776578344,-0.023571239340870263,,,none
1.2361239999999896,39.0982522707277,7.528182366940243,-41.76634572119424,0.12527060933041767,-0.1602020512811962,-1.0165761897662247,-0.056235654020620585,0.04777352927243319,-0.11989218385473542,,,none
1.245757999999995,38.96509197302163,7.870835793249387,-42.187237465647904,-0.09906057901279881,0.057691827002191116,-0.8112010739020202,0.02620459583040003,0.06868968424982645,-0.09399199541778043,,,none
1.2551449999999988,38.602315276898665,8.307254974189597,-42.62162405969437,-0.3268237883483282,0.2537021434300233,-1.0051911573791825,0.005789256256433514,0.11302499749677264,-0.08371896604363735,,,none
1.264649999999989,38.3597648498986,8.605201968991384,-43.09452357717819,-0.1918127600415417,0.0024877459758220724,-0.9368127289186823,0.00536105804325991,0.07640430340026742,-0.08756054235331343,,,none
1.2743409999999926,38.091008013412456,9.176336625827156,-43.1285962000901,-0.07594673468925017,-0.1786363048718518,-0.8382377977472585,0.03934754235439901,0.1198312070129166,0.0014796222876184665,,,none
1.2836999999999819,37.71355207544444,9.799397947512071,-42.89569653808664,0.026802787521052952,0.010029572812009458,-1.2027081179952412,0.030602461560434235,0.14209271442975374,0.059078359393695004,,,none
1.293184999999994,37.41575836566826,9.98242508400468,-42.86694205067523,0.18282043877695228,-0.2140980112623675,-0.9780247920575518,-0.018105545961891515,0.06683299414822387,0.015996160998599677,,,none
1.3026969999999949,36.9669531889564,10.073733670704975,-42.91870802752597,0.20635836575727318,-0.2090689997305263,-1.0039787952363994,-0.05239207108838857,0.07362947583044384,0.0052813625613812925,,,none
1.3122079999999983,36.55352570434172,10.259805015632779,-43.04072068352528,-0.003420472795531362,0.11824307910494927,-1.0187332580435664,-0.03421476034587079,0.08281095978796824,-0.00982348093108885,,,none
1.3218980000000045,36.13559453077712,10.324348487669893,-43.433449822272394,-0.12390370756594143,0.17049044231286578,-0.8441439932178583,-0.0511789705458389,0.06578176201367249,-0.07760279756439414,,,none
1.3313969999999813,35.65393666933407,10.558021655224671,-43.9212658150771,-0.1395053262790446,0.0891551121828912,-0.8709257026991655,-0.03635540997929769,0.09931388323260405,-0.09492295609509456,,,none
1.3406909999999925,35.307759426219796,11.187193012517035,-44.2169375802783,-0.17085421335185816,0.1480839987923711,-0.8851238841129929,0.03864555098410836,0.13788834136756406,-0.05775172978645157,,,none
1.3502440000000036,34.94793437347071,11.818784460266349,-44.409193302698895,-0.06362530438939284,0.032365016770583566,-0.9741867286354999,0.03771312536944306,0.13984983167594264,-0.043612287617656904,,,none
1.3597529999999836,34.60920733014853,12.283685868178935,-44.51306442549351,0.12020878287568633,-0.21483784446305554,-1.0478704681927848,0.017759468383824365,0.1129206973291502,-0.027375860178471566,,,none
1.369263999999987,34.34775786362607,12.69305531277082,-44.424041488320334,0.16577992268665268,-0.21437599536985077,-1.0475701265654787,0.020883556152943662,0.09432458057573527,0.013195828288547313,,,none
1.3788559999999848,34.03964770233066,12.850095306492475,-44.347956887672396,0.09253873759938475,-0.06710406469033325,-1.096898794031358,-0.0210476590722263,0.06454962691665253,0.013581868332320567,,,none
1.3884280000000047,33.720115304772236,12.744372682144563,-44.44258994760698,0.012803366359399111,-0.05388108124918075,-0.9455952712608674,-0.05941582160503467,0.028483282020703875,-0.01966193348136373,,,none
1.3979229999999916,33.355073364016256,12.782600147439037,-44.57386526564816,-0.11649842462487384,0.08116135021227225,-0.8660176704226945,-0.04551560710113404,0.05540070053535953,-0.02585151926209127,,,none
1.4073080000000004,32.94671421259766,13.059054465917548,-44.76814863164207,-0.2210129653985025,0.22818556217266397,-0.8868044519124095,-0.017835905049703796,0.09538520900106622,-0.03817166573177405,,,none
1.417000999999999,32.509312270986115,13.452673103463429,-45.089216376745426,-0.1654617119674259,0.1206286462666701,-0.8454946989184253,-0.004797127145962495,0.11600302934269781,-0.06438867922789503,,,none
1.4264639999999815,32.032207387863714,14.039468103515974,-45.39469134886838,-0.022829771857947344,-0.04579860434635241,-0.9359063893160252,0.01798068961147852,0.14864365798997606,-0.055829220207869644,,,none
1.4358379999999897,31.584530895482608,14.68459571616333,-45.600112277258056,0.06251661092842563,-0.0909588634467643,-1.0318934544775864,0.031151804157033596,0.1525115262588145,-0.03568797487339075,,,none
1.445527999999996,30.69757294692122,14.812003187167312,-45.909411182905714,-0.07615104616611845,0.8377596561045101,1.2971212143814124,-0.10167196725275769,0.1407632640296752,-0.033333830064141756,,,none
1.45750799999999,22.533622040433706,9.615392213063851,-46.71366533271447,-1.611498336471234,-4.966857755707949,3.328058097874218,-1.855432148201771,0.43730060595871767,0.17457305065982484,,,none
1.4645469999999818,35.89248673833745,13.703595680197722,-42.015837217441636,-2.4092581960434583,1.1662067905434672,8.178725506170034,2.444717513281165,-1.2463812465447328,0.3662499999634251,,,none
1.4738769999999874,32.05301386268673,12.427866288643992,-44.46027205294794,1.2638161176541736,6.389365818182428,-2.230333442456523,-0.7211155318171035,0.325844025540755,-0.3512940015653635,,,none
1.48338099999998,14.261045211954274,5.335361541493389,-51.06729495592248,-1.0105053755015898,-6.045060218264279,0.9947679509647411,-3.408790151448954,1.665579167132734,-0.7292938623361865,,,none
1.4929719999999804,15.038211198830076,9.695381388398182,-51.59868207736579,-1.4806559653034013,2.339783785624882,-5.661321368786614,0.7788256611510774,0.423722699008333,-0.0890109948269881,,,none
1.5025839999999846,15.733885620549879,10.664454538462476,-51.78929407557507,2.8974485147773126,2.284353456227585,5.521461037254647,0.23726186311203568,0.012896327815334643,-0.08295896282292112,,,none
1.5120119999999986,2.897114771657923,3.908950750351387,-53.76305996158517,-1.5259066654293358,-1.8644938908951383,-4.89831929619665,-2.6152853274517627,1.2180608454451916,-0.053887157339753515,,,none
1.5215069999999855,3.7952519011200967,1.7148018746796043,-53.44409894868642,1.823662752528265,-2.5596087762229867,-2.986938738589315,-0.24684071533470325,-0.4054544453574554,0.04214196009669209,,,none
1.533580999999998,4.847731932631603,4.048841034503401,-52.476826202656845,1.1088516320855126,4.037865030014623,4.971276484994901,0.49974699304503456,0.11410885674610986,0.1554300596943741,,,none
1.5405309999999872,-2.9755744485911912,-0.5149876508832243,-53.005150507332424,-2.395151057677734,0.08836495910620096,-6.950136965102589,-1.6747923387623924,0.6935696822267785,-0.06572757378693947,,,none
1.5501349999999832,-2.0668931537453794,-5.760466309806367,-53.35215261177255,1.3691988941042,-1.5779061444405875,1.9077802875933494,-0.7304230284240383,-0.7764411378191513,-0.10386444769454124,,,none
1.5594719999999995,-1.81058471201168,-3.4264484909912807,-54.51904672999725,0.3673804759993592,2.987450193420136,0.45692339276883587,0.4076313648026005,0.2343529097997354,-0.2605905684637898,,,none
1.5690679999999873,-6.476113722065682,-4.696206482088449,-56.263865772092,-1.6468833912986423,-0.6245092864657215,-3.7969121082176427,-0.7390673135974093,0.6221102050855528,-0.4353251302813323,,,none
1.5786689999999908,-6.296061417227072,-9.194329749998593,-57.065046411845735,0.5511391060904544,-1.2305280675459631,-0.011492295429736924,-0.7317104239033504,-0.5265620579260363,-0.2075147483494213,,,none
1.5881809999999916,-7.52153350130563,-9.793423397035747,-57.672991236925824,1.5749557454331942,-0.39767360563563825,1.6213179322709688,-0.231791090963773,0.13875642209318706,-0.20207431407505125,,,none
1.5975899999999967,-11.824647116960135,-10.193409953540142,-57.83131977617462,-1.751394972091097,-0.6277954782374606,-3.6078226095822665,-0.5208017162696926,0.6748104507070306,-0.19039918738807254,,,none
1.6072249999999997,-13.103060039558962,-14.599442561451298,-56.42839806986317,0.33375845883110467,0.12766951314395694,0.07326716473963865,-0.8765973933483862,-0.26943614922674686,0.209459155942609,,,none
1.616708999999986,-16.527823518686823,-17.255940593252525,-55.207027469196916,0.9724032514124287,0.3405268754279696,1.2246582912006265,-0.8106642705500784,0.24624840713654447,0.04052096246646521,,,none
1.628592999999995,-20.69402921701431,-17.203884366905985,-54.962281935408306,-1.808388334350959,0.42855161711226625,-3.182719815209119,-0.44754431008944706,0.6593735077776436,-0.19813410948579413,,,none
1.635563999999988,-23.151589044907713,-19.81191942117086,-54.06906966781834,0.37903656948454506,1.3890842210101277,-0.17136875839085552,-0.6961291598132453,0.0768929387989864,0.022502691162187716,,,none
1.6452579999999841,-27.221702423161386,-22.362192714716834,-53.710346100385614,0.49657605950466427,-0.04816713194329186,-0.6487980711000283,-0.8609288109435808,0.3127276193829904,-0.24349513303938697,,,none
1.664166999999992,-33.034936800536464,-25.032162842829578,-54.62270373546117,0.27499362205374606,0.0023415518619264546,-1.2897317400263328,-0.6105566029069265,0.14600018178129817,-0.22433288662750195,,,none
1.6738,-36.86043421284715,-28.30950846979256,-53.46506081822208,0.5602941041784101,-0.1682413307629686,-0.30418239044491213,-0.9331613246620412,0.16831205073330494,-0.12738343297273577,,,none
1.6857609999999852,-40.086045345452575,-30.149053649425035,-52.83185801351567,0.12943597631569248,-0.3379351379487036,-0.7118395582513909,-0.6328442955004575,0.22998486325477593,-0.19524115895235372,,,none
1.692734999999999,-42.98041321238509,-31.722933274435558,-51.73430021388148,-0.29771115065700027,0.6462527016225661,-1.5980590861640278,-0.5534105283322475,0.20044683922409887,-0.07831652252162105,,,none
1.702151999999984,-47.033100199425924,-34.03840821591228,-49.325106932502344,0.012273589955552573,0.3556757750625155,-0.872042998894531,-0.7910461452320802,0.23139576852779445,0.041483014095983164,,,none
1.711671999999993,-50.23611804735156,-35.27836209483191,-47.881555646156194,0.12588664059879265,0.23689248836622112,-0.8533992155643213,-0.535096502546459,0.23154113689656172,-0.07582767446265229,,,none
1.7212539999999876,-52.92765004669817,-35.95493534305621,-47.31105517939857,-0.26023874752005627,0.4885985874520324,-1.4860461361414747,-0.3954914858698819,0.23214643367825505,-0.19969029448613823,,,none
1.7306719999999984,-56.56833999234097,-37.61324593126642,-45.537329836876275,0.002820286913287553,-0.26708089125603446,-0.9239223429677099,-0.6429759495592661,0.194068945353383,-0.08158358841650604,,,none
1.7428219999999897,-59.94565424515801,-39.33401886617523,-43.859864975692986,0.5436035552447959,0.1382105294736369,-0.4246372177242822,-0.6186605179792434,0.12744236361971634,-0.08506439301426942,,,none
1.7497789999999895,-63.055824103864396,-40.79987336066473,-42.831982020786306,-0.0440555460775828,-0.07629594245965987,-1.1206779177031359,-0.5480518109675189,0.11365717648654233,-0.19520457938127883,,,none
1.7592009999999902,-67.31918810508115,-42.74761954602269,-40.32267237450718,-0.058504208413974454,0.1286690673467985,-0.9682482750533628,-0.7349646769879287,0.13071428432480375,-0.06658729317456002,,,none
1.768714999999986,-71.98779086540722,-44.53338138014716,-37.201003870089906,0.15085300230799656,0.34253085843738446,-0.796650890023623,-0.7512193898544801,0.14466332438301266,-0.020431008031802898,,,none
1.7782189999999787,-76.04367951748264,-45.621932586579035,-35.14876623773127,-0.09945405412371586,0.3859268476250362,-1.1388036086991407,-0.5914860218325271,0.1624593459385107,-0.16426353165603788,,,none
1.7879109999999798,-80.3009354872339,-46.354443862382084,-32.81074853972908,-0.617814509247674,1.0173854185360636,-0.18579411764931958,-0.5730020011766387,0.2092737688344483,-0.14503150206389898,,,none
1.7974169999999958,-74.48492287324714,-45.450325682818274,-33.258044485683584,-0.3252800096397873,0.9525289116317941,8.918767352063705,0.7779675786764746,-0.29005792434627786,0.7468778029319203,,,none
1.8093839999999943,-50.89078124212445,-37.88851366561634,-40.421285952234705,4.365315801299836,-2.699849315594338,2.954550709054002,3.712467442935332,-0.9240445739220592,1.7453302137175282,,,none
1.8162629999999922,-42.388197971030415,-35.61105311651992,-35.18717561413862,1.1578056863649773,-1.2860867395408442,-0.47852094389263644,1.357469825859803,-0.4803723035980142,2.1176450582229656,,,none
1.8283950000000004,-45.359037524655214,-42.12216970927448,-23.099610763485558,-3.6107651970186225,3.5416425551343442,2.2327943124839305,-1.043050008230346,-0.9121678288954801,2.098625592725291,,,none
1.8353599999999801,-44.32052736110878,-47.197775277767064,-16.08892807013563,-2.3373262022930135,1.1268304929530726,-5.412426457517626,-0.2014434378743655,-1.0083105563260517,1.5489443018690807,,,none
1.8447979999999973,-38.64512043270108,-49.71072626223142,-20.760106363744406,-4.582348907949573,6.207123463118387,-3.027745663428826,0.5573726802765805,-0.7139698327471938,-0.12940782689277158,,,none
1.854393999999985,-29.898014519759105,-48.84092476502522,-33.15822243613339,-2.5076431482868067,-3.566314762449908,-3.57145059258094,1.0970222165000763,-0.36261330575202094,-1.1531666035671182,,,none
1.8639859999999828,-16.776932979041785,-44.20217583326306,-45.86602175925442,0.728919921785315,3.2680676932655484,3.6016520976673108,1.9815383599698717,-0.4361525463449518,-0.6305863500541825,,,none
1.8733299999999815,-16.153677265261397,-41.24887340217282,-53.978785902977165,1.461945243512149,-6.008548945934788,1.4512779765820205,0.5119273632225345,0.31113734261616866,-1.5393365817124784,,,none
1.8830319999999858,-20.720265670425775,-43.053699740022964,-54.33457914623589,3.1549094237107353,-1.4776218688439002,2.4071054384859716,-0.6899213363255793,0.3380875294505172,-0.6850674125406458,,,none
1.8925249999999778,-30.006123569935887,-46.85458071916523,-50.90684806702184,-0.22380917021970345,-1.9680671454244933,0.1965686723393144,-1.402876755377941,0.5824928093034283,-0.6600888655795062,,,none
1.9019250000000056,-34.82925698018192,-49.72338370822324,-46.28377085657398,-0.1914093794969629,1.8361865106564361,-3.168630889498758,-0.8557016246454624,0.10158480691128997,0.1911764914869567,,,none
1.9114339999999856,-39.01904016393589,-50.915194970224654,-43.79559130313549,-0.5544973474326885,4.22723929314896,-4.684735089219552,-0.5473622790045717,0.21021433485951332,-0.15308695843120523,,,none
1.9303960000000018,-34.05863612670031,-47.40281606094921,-53.0791935394909,0.5315094700388584,1.7148003920564505,-0.6089908765799781,0.8913651539403071,-0.13248406244463784,-0.5926067277860749,,,none
1.9400760000000048,-25.811557426026226,-42.89831669658741,-59.19143761700789,-0.28356143807431633,-1.8787512576204541,5.471517365687544,1.3968750935322376,-0.46374143883897045,-0.07336203847601828,,,none
1.9615409999999827,-14.72054166486828,-39.11552710814562,-54.20844933005147,0.2724549843036686,-2.4417266022605015,1.6701321543719074,-0.023060408366619448,-0.06920531983379183,1.1844370058650213,,,none
1.968607999999989,-18.118208975882126,-45.2947344882699,-45.11133492977243,-1.240703075568268,0.8925101904800182,1.0395451951437324,-1.2703603766446805,-0.41591507638574216,1.3826441888431225,,,none
1.9779039999999952,-18.685103916741575,-49.138746047434594,-38.82443699901293,-1.3339471866760642,1.9867691954222166,-0.7571759552603625,-0.5728786565246168,-0.5207111306802846,1.2001218076233962,,,none
1.9875409999999931,-14.927074974251148,-49.601217831948475,-39.59970385514099,-2.4405846332860466,2.226924762304926,-4.2018134131718625,0.32133598441574224,-0.38136631756553185,0.4044880168250973,,,none
1.9970469999999807,-8.259072589233165,-51.893435187296674,-45.944766444908176,-1.3177308184057581,0.8929213727679159,-2.528773570450034,0.3109708127259864,-0.9091712549340194,-0.2961578623892147,,,none
