timestamp,roll,pitch,yaw,acc_x,acc_y,acc_z,gyro_x,gyro_y,gyro_z,acc_mag,gyro_mag,markers
0.0,128.425682605492,-61.24609031927118,-65.49078684565129,-0.17898814874824803,0.017156777471621053,0.08225559817589229,-0.000273369058997156,0.10204964604049618,-0.10992415873982746,,,none
0.009490000000027976,127.50752902366604,-61.12543919728811,-65.13703613412665,-0.17739274695235385,0.06965260227849777,0.10538797868019026,-0.0010814087643389201,0.0876652849607597,-0.08734115452045917,,,none
0.019016999999962536,126.7746699186495,-61.01783323430341,-64.7641175903516,-0.19058845755184858,0.08586765456059323,0.08803116591300214,0.0034405701752498077,0.0704403415088872,-0.0509618837221482,,,none
0.028483000000051106,126.22520828052767,-60.91251836580517,-64.362259995956,-0.1681036776725182,0.06601633554036791,0.10761571152578506,0.010091107401825004,0.05428226241288112,-0.013014393328906321,,,none
0.03798299999994015,125.85292606647808,-60.81491107044477,-63.94181020480341,-0.1287328614807608,0.044516886384641643,0.09984798791787931,0.0,0.0,0.0,,,none
0.047549000000003616,125.43425626990177,-60.72202940033569,-63.35178287440101,-0.0919866241957292,-0.02286953652498376,0.08008606843905074,0.017251590028611537,0.023117745104664127,0.04757056338478717,,,none
0.05711699999994835,125.19480099596275,-60.74260994888502,-62.84389256193696,-0.03294166501289498,-0.06752202626910919,0.07205282826811335,0.013712093814170098,0.009391451178342336,0.06241279356600759,,,none
0.06661299999996118,125.09055502297369,-60.87702153274284,-62.43539691324452,-0.0068068347809262875,-0.09793537123257029,0.0760488476064391,0.007514509889762227,-0.003337723554907432,0.06611239775673221,,,none
0.0761290000000372,125.1091546266987,-61.08688947213419,-62.18713923243668,0.0507109117537027,-0.1215849167301757,0.06436309844813426,0.002783201487237783,-0.01322710779599517,0.055528540758017074,,,none
0.08562900000003992,125.20622820633832,-61.32614931423066,-62.10480986604103,0.06396627398922246,-0.12358877342309794,0.04810654143908046,0.0,0.0,0.0,,,none
0.09514899999999216,125.31111918744853,-61.53935354925549,-62.1455738093596,0.04860924770448208,-0.10968793988827175,0.00931539930664463,0.0,0.0,0.0,,,none
0.10460999999997966,125.32313958441974,-61.69293473467821,-62.21135546418613,0.01390786446799064,-0.09158356214520799,-0.047130800924558125,0.0,0.0,0.0,,,none
0.11415399999998499,125.14241988218511,-61.771311056944846,-62.17851972336351,-0.028918011490261793,-0.06789387203551311,-0.10185327886786527,0.0,0.0,0.0,,,none
0.12362099999995735,124.90029281510164,-61.78192419372583,-62.12732255780937,-0.07128037387100186,-0.03397032864046217,-0.12253896600579144,0.0,0.0,0.0,,,none
0.13313300000004347,124.42457580978031,-61.8082383266914,-61.87633833694864,-0.060232657405020686,-0.01117073671726674,-0.1192911669248748,0.0,0.0,0.0,,,none
0.14269600000000082,123.6284123452357,-61.823457509383225,-61.43332175746784,-0.07456411885532108,0.00435403895004181,-0.06059525070116458,-0.025375087643244407,0.04443586601204533,-0.028517668642930826,,,none
0.15221099999996568,122.8021209404356,-61.88684442175536,-60.94865032779582,-0.053517503369254815,0.024719848823194494,0.025428721725803852,-0.03701921447710488,0.04526859935681286,-0.02605028345145083,,,none
0.16171799999995073,122.06474604750906,-61.988352971424,-60.45894209717424,-0.06061848593618869,0.012056815890281004,0.08314774435352015,-0.0423757866128155,0.03668752984913431,-0.021555250900509373,,,none
0.17111899999997604,121.54453055108975,-62.15246815012889,-60.137395272324376,-0.07331693812220497,0.007738937474121142,0.1264896376810818,0.0,0.0,0.0,,,none
0.18062899999995352,121.17886575260978,-62.29768947525889,-59.92049947920044,-0.060665339222311106,0.04100298314963805,0.15221263464494586,0.0,0.0,0.0,,,none
0.19015300000000934,120.944883232685,-62.39571307729872,-59.75555192203602,-0.06937476395606312,0.04575099219023295,0.14371370474224482,0.0,0.0,0.0,,,none
0.1996960000000172,120.79699905094212,-62.42579223537387,-59.622235886496924,-0.06832941003109838,0.036888141308358706,0.12592384988523078,0.0,0.0,0.0,,,none
0.20917099999996935,120.70697811246154,-62.39236772269489,-59.47317685837632,-0.04686791954602039,0.027945345234942753,0.11222579768833503,0.0,0.0,0.0,,,none
0.21872099999995953,120.66151401792915,-62.32353116269261,-59.31822011052173,-0.033839027872782944,-0.006616301891994099,0.09587294190327232,0.0,0.0,0.0,,,none
0.22830199999998513,120.65695426196248,-62.26145702590636,-59.17232512864251,-0.005317382158044769,-0.02132646891564196,0.08580800163384715,0.0,0.0,0.0,,,none
0.24725999999998294,120.83765833217035,-62.270321435609446,-59.13454022223292,0.0173394488264809,-0.029011783537999377,0.06429575439273201,0.0,0.0,0.0,,,none
0.2567709999999579,120.9418525333578,-62.3190916005805,-59.2001346576523,0.012714897766465021,-0.021329553411341868,0.04733593336883796,0.0,0.0,0.0,,,none
0.26629700000000867,120.97205749366081,-62.36539396539125,-59.21686929525537,0.008197946163911054,-0.013761393089294584,0.030594940639300235,0.0,0.0,0.0,,,none
0.2758000000000038,120.89364169397165,-62.38470345933489,-59.1690637143133,0.007123613491297547,-0.011935315973386325,0.02657011746655121,0.0,0.0,0.0,,,none
0.2853129999999737,120.69691218582174,-62.37181412945334,-59.02447786556018,-0.013045105290321862,-0.004952377996351473,0.04516906298948346,0.0,0.0,0.0,,,none
0.30432599999994636,120.21291156543221,-62.26978949402987,-58.66128651205864,-0.011153076484717181,-0.022177723682151027,0.10272520856619181,0.0,0.0,0.0,,,none
0.31383100000005015,120.08074914337443,-62.21957793572381,-58.668445144321126,-0.00977495721186506,-0.02993729715723228,0.12748219518199977,0.0,0.0,0.0,,,none
0.3233430000000226,120.10043194249673,-62.19972973090051,-58.858521431796014,0.0033959849114469534,0.0006890361247853322,0.13676524403880666,0.0,0.0,0.0,,,none
0.33286099999997987,120.31586465811677,-62.21358183084534,-59.209764120746044,-0.003188787069438449,0.01696139325862788,0.11626236701354004,0.0,0.0,0.0,,,none
0.3424219999999423,120.70722249572744,-62.21452118956322,-59.652029516722635,-0.015619976413754722,0.03395116376607079,0.07463340339209348,0.0,0.0,0.0,,,none
0.3519330000000309,121.18457515205583,-62.20768612503672,-60.074384778922024,-0.024297567272500698,0.04036810508825815,0.024828857021140172,0.02807326731067158,-0.04628189806875903,0.009429271444341797,,,none
0.36144000000001597,121.6715894643373,-62.17933945830776,-60.421898681502256,-0.035784045364010975,0.03356692668606331,-0.03825195877779599,0.03102601516826597,-0.04606808301679391,0.01898222786480097,,,none
0.37091799999996056,122.11320056305772,-62.131014874837994,-60.677303409581455,-0.019307481771722045,0.03437361539815135,-0.07455828242755483,0.03276548391120059,-0.03843523576503076,0.029407616230173194,,,none
0.3804609999999684,122.4515167018924,-62.09042591274891,-60.80235808911429,0.0028887105458502813,0.02525601384240807,-0.08882824679679453,0.03231108466795302,-0.026914062326428498,0.03725177838717907,,,none
0.38997600000004695,122.68190106916914,-62.07517164402383,-60.81744920542543,0.029370363877190046,0.00821540498609633,-0.0851952695661666,0.029527702599475632,-0.015565589964669415,0.040203769920840904,,,none
0.39944900000000416,122.82260115448679,-62.0950047708439,-60.77169266109439,0.0362095404124317,-0.03343826732235879,-0.07684914042082729,0.0,0.0,0.0,,,none
0.4089930000000095,122.91363061957502,-62.151989258125816,-60.73093509301127,0.056243594217209855,-0.05398900656602596,-0.03940916386647183,0.0,0.0,0.0,,,none
0.4184569999999894,122.99481471715818,-62.233251053976176,-60.7957658427397,0.06680649527061473,-0.03048153073852327,-0.031170519121468353,0.0,0.0,0.0,,,none
0.4280159999999569,123.09833418870883,-62.31108432420865,-60.901360213225516,0.05416304940138704,-0.024732229314172162,-0.025162955310849795,0.0,0.0,0.0,,,none
0.4374830000000429,123.26132790940277,-62.35747795830798,-61.080021851905414,0.04039563780346494,-0.018462931288996603,-0.018694827524731783,0.0,0.0,0.0,,,none
0.4469970000000103,123.48959856006068,-62.34526450160867,-61.335706550932294,0.03139902379521534,0.03089471691500235,-0.036329596565794764,0.0,0.0,0.0,,,none
0.45645600000000286,123.805539097099,-62.26603769245375,-61.66162115542917,0.01712527343619331,0.08199492021079512,-0.044113872052178975,0.0,0.0,0.0,,,none
0.4660509999999931,124.17534909999831,-62.14357367620166,-61.992121516200605,0.02280624504540406,0.10661972195797353,-0.05583703506151339,0.0,0.0,0.0,,,none
0.47556999999994787,124.47892995176832,-62.04823582091497,-62.20344952627582,0.011808700717718138,0.08542575815393776,-0.05836452325431961,0.0,0.0,0.0,,,none
0.4850460000000112,124.70699034431169,-62.04007718802678,-62.29381990961677,0.008098324679612075,0.017226369081814682,-0.06838136049808552,0.0,0.0,0.0,,,none
0.49459300000000894,124.92047696691645,-62.13186504209338,-62.32465628741135,0.008610391716194323,-0.022835487451211556,-0.08558746448419616,0.0,0.0,0.0,,,none
0.5041029999999864,125.27661339283993,-62.28256710731612,-62.45466116049373,0.026641263604292365,-0.03172896547450003,-0.09945307703217213,0.010339947676274821,-0.03944742870724402,0.0397632283922475,,,none
0.513543000000027,125.61353563121172,-62.41283298938682,-62.58664795615159,-0.023628533621638394,-0.08787119124565955,-0.22614208522242088,0.005149537525484319,-0.04237065929111121,0.036080381091249385,,,none
0.5229080000000295,125.97933381472481,-62.492696253707855,-62.79001544002014,0.05901826645393484,0.05962795400592873,-0.2878603825915103,0.01518159909409061,-0.03994206888273107,0.02700735170587816,,,none
0.5325090000000046,126.18693526991589,-62.508625287403405,-62.865426488038395,-0.014673860105358696,-0.016640941659891894,-0.38551402778932664,0.0,0.0,0.0,,,none
0.5420149999999921,125.89932429741332,-62.46929910935664,-62.5767129016784,-0.03842482374280097,0.01597079419825801,-0.502584221889235,0.0,0.0,0.0,,,none
0.551529999999957,125.29461065582127,-62.2819161993152,-62.13440872784301,0.0006376651113896742,0.025921769073845913,-0.45274233654312057,0.021268552721581468,0.06456335023774294,-0.01586949582653754,,,none
0.5610819999999421,124.5014633811036,-61.996085847669924,-61.55499985479383,-0.05488597333628268,-0.0885293165804415,-0.5487393369388898,0.029596329286726602,0.0898257576395721,-0.02162919544979659,,,none
0.5705839999999398,124.14001771503933,-61.52172358113393,-61.28095435709365,0.062383958254396674,0.17229243847741565,-0.6485510283187859,0.08120282043960879,0.0729667939277917,-0.006309617847297285,,,none
0.5800530000000208,124.53700010326013,-60.75494964124107,-61.62175766287505,-0.14305470912459212,-0.036266003784200355,-0.914249212167511,0.16736519926501345,0.03724608919785752,0.003737021683999064,,,none
0.5895130000000108,125.00674569195385,-59.90061238814028,-61.948679723357564,-0.03396960019533069,0.09941221586305876,-1.084732309053894,0.1869477832465922,0.03741331965863439,0.018535455988487798,,,none
0.5990269999999782,125.17694027682175,-59.196294759856684,-61.828502008464284,-0.16003874218634723,0.015789971390576144,-1.324639527475587,0.14679685945353596,0.04864636900706774,0.06878455285654539,,,none
0.6085299999999734,124.96041856586302,-58.65081255198443,-61.35067338382845,-0.026859449753989167,0.07326944215496546,-1.2908580615598948,0.09973821926314975,0.06907697689964112,0.07456864216340901,,,none
0.6180450000000519,124.52114091101319,-58.27123133163042,-60.662243859114476,0.030102781729158194,-0.13705692193288513,-1.1101227985499043,0.05848016444237388,0.07456489851629601,0.07166030347974593,,,none
0.6274710000000141,123.84807088133583,-58.074818923947234,-59.83797586322537,0.12252754289494215,-0.15490573510749844,-0.9095152998987127,0.013174581062265255,0.07873390901551851,0.057597483337835605,,,none
0.6371339999999464,123.29331345731113,-57.870162824806314,-59.33245633178202,0.16279510142214038,-0.14709870410717774,-0.8122360146471689,0.01977587203354098,0.0691030657973218,0.013216125648013336,,,none
0.6466890000000376,123.121120397968,-57.48756233048705,-59.39152217619782,0.12667457850275457,-0.135614662184005,-0.8005636089988812,0.0707194936990797,0.052496225779415866,-0.03918088772798875,,,none
0.6561420000000453,123.05289790209595,-56.94880781808749,-59.67400626567087,-0.002260586592757459,-0.08230034687805207,-0.9504475442583427,0.10342696222528341,0.05861312230397232,-0.06638961078290437,,,none
0.665175999999974,122.84641982164844,-56.287368089358786,-59.855162381865064,-0.08766773489533405,0.08841631035909671,-1.1424007278260708,0.1172086152473328,0.08378325033674755,-0.06925243059004177,,,none
0.6750660000000153,122.46934735385139,-55.53320210130773,-59.81923031333296,-0.17099108918232567,0.11131183572314934,-1.2329039415515732,0.12358510923229449,0.10980096465434487,-0.053930680644525136,,,none
0.6846199999999953,121.76565394073985,-54.83450493082946,-59.360551508931394,-0.1404703175540906,0.07817607239246985,-1.171252850320015,0.09427486655566074,0.13743810776625737,-0.022574410292249075,,,none
0.6940620000000308,120.82462692767471,-54.30099250589469,-58.52832975531933,-0.07168102508414648,0.028953568828174573,-1.0426474283748952,0.04953529676679198,0.145886576633161,0.014223345287294407,,,none
0.7037339999999404,119.99585971606001,-53.888407525004915,-57.75899714152233,0.03727292958870099,-0.03600971585348117,-0.8689449668470874,0.03315495392917977,0.12348085970070782,0.020575596446333333,,,none
0.7132510000000138,119.51951932997356,-53.54934303333138,-57.34260856345865,0.09901508653490587,-0.12520434836237965,-0.7455714892398995,0.0412916010443217,0.08131447673471445,0.0072757132571266165,,,none
0.7226839999999584,119.37990635069899,-53.249682161296086,-57.276353986397076,0.08905493211110087,-0.09989530793418246,-0.7815375476573652,0.05571403407462663,0.043708724197323225,-0.00850029767192061,,,none
0.7416650000000118,119.74154059449698,-52.37263422438541,-57.894498443175905,-0.07415032690850397,0.022348520020750086,-1.1024319063301014,0.11423309589686811,0.028989290194256043,-0.03712405240068969,,,none
0.7511419999999589,119.68806677474512,-51.7789899005388,-57.95966733634874,-0.12386325924041358,0.06349674272370086,-1.2159597696319873,0.11146680332108812,0.06589090860312988,-0.021068525021816446,,,none
0.7607160000000022,119.24470111188255,-51.14990012650303,-57.59552997271821,-0.10946927809986846,0.07204615283009927,-1.2256564084825725,0.09138198284797025,0.1111137350737796,0.0037844481035279693,,,none
0.7701570000000402,118.53561326634646,-50.51226997661792,-56.97241037245514,-0.036408757579487985,-0.007740361588212327,-1.1073731177179784,0.07330325918968644,0.14160710468625465,0.01484207564101438,,,none
0.779260000000022,117.72242605495073,-49.935203577729894,-56.28639527086616,0.05620463756815261,-0.10614089108618621,-0.9431237655572688,0.05354825574433115,0.14771461777196446,0.012189673326952808,,,none
0.7893040000000155,117.00582624685943,-49.45619979781771,-55.763404666600394,0.11466007003392076,-0.12471438698129972,-0.832689014497202,0.041976298683333184,0.1277197383572677,-0.0049197869568868065,,,none
0.7988370000000486,116.58225609643337,-49.037248010436045,-55.62502792505003,0.1000017253661935,-0.10129429795515144,-0.8150823534494637,0.05231614526875789,0.09014899187952531,-0.03691497090478806,,,none
0.8083560000000034,116.43591761228015,-48.641702889187236,-55.816522745420315,0.014954876303418274,-0.05269201628545865,-0.8849805152500758,0.06873727964183161,0.05762637693636118,-0.06090247910433076,,,none
0.817641999999978,116.37903666882568,-48.24111083424656,-56.07084858095,-0.0900691469187939,0.04688843135527363,-1.0153608357515596,0.07635004883889342,0.04819638290718807,-0.060034166606186726,,,none
0.8272779999999784,116.25759619342048,-47.783045872587486,-56.12293612134812,-0.15690689668556823,0.11922886587777737,-1.116268897430612,0.08116386389193378,0.061678062169098546,-0.04064066807978038,,,none
0.836781999999971,115.97336098674461,-47.24570917641521,-55.89975638950923,-0.15529333741413037,0.0977565594082939,-1.1259122440049765,0.08185550892345293,0.08903461547966984,-0.010918769402891585,,,none
0.8462869999999612,115.48130217959172,-46.66420729367631,-55.36015707830997,-0.08318821880152288,0.02721107690650784,-1.062187799722022,0.07229761809412924,0.1182928942396382,0.020449052296556254,,,none
0.855878999999959,114.892070586541,-46.068818318049935,-54.70836989779118,0.022826736727730064,-0.049157843562594984,-0.9643955980603393,0.06522192582202743,0.13213668215922214,0.03245151906765479,,,none
0.8654169999999795,114.37979757590246,-45.4854505945141,-54.19450232538577,0.10699996538778096,-0.12303198002095285,-0.8822477611919566,0.067602210558808,0.12326584855265561,0.016431142212589445,,,none
0.8749289999999519,114.01809737934565,-44.95637611908659,-53.91494013511438,0.12104639859476973,-0.14404469951669838,-0.8690068933355738,0.06991406533774232,0.10066510633392195,-0.01275096416182639,,,none
0.8844380000000456,113.78999129320466,-44.49690057512948,-53.8624605305503,0.06226533255531879,-0.08277101100717107,-0.9317802665726576,0.06924436624300447,0.07760175422950748,-0.04107809840634609,,,none
0.893856000000028,113.62898086929916,-44.07395150382739,-53.9423129972793,-0.03748882599358337,-0.003921746870340032,-1.0230263483523112,0.06883652860702869,0.0656776250783196,-0.05960134021962528,,,none
0.90328599999998,113.3953657072622,-43.65432476955366,-53.95175250431926,0.15999890797247854,0.38178547832963805,-0.9445566323723498,0.062063691622325855,0.0738029046087574,-0.05679875036841977,,,none
0.9129500000000235,112.11028612441751,-42.91529799086687,-53.33373056723277,-0.01327857486453681,0.6229292852235945,3.2016484324074024,0.022092674548583893,0.23553725464819122,-0.07121836135933679,,,none
0.9249399999999923,86.62882900823836,-31.957216681854725,-38.20387811668732,3.6562547796813267,0.047342247252273484,8.449674482057175,-1.2441198913602864,4.401665417362932,-0.018433046063508873,,,none
0.9318859999999631,68.20544306815432,-23.11090188094189,-37.900753851513436,3.2198422381137366,2.6654350870396524,-7.59171420703286,-1.4768712170280596,3.39911565174029,-1.5940906368163559,,,none
0.9439579999999523,67.56271843187369,-32.27635131998281,-55.956386932803454,-5.676449333367598,0.8676472426196821,7.189769480950891,-1.4137699176892857,-1.1937013280683089,-3.8003843241018145,,,none
0.950794999999971,51.30619965338326,-32.637075979309174,-56.28833060017523,6.220181240332483,-3.194744260721729,-3.932811911953097,-1.600009835835521,2.220250232565919,-1.951003546399355,,,none
0.9603429999999662,34.739479044583206,-31.265968071545,-46.89248157204454,-3.578828447361551,5.968217121267474,0.759472693668992,-1.5265892576435907,2.362976997584797,0.1457902950933754,,,none
0.9722980000000234,17.12718260874624,-40.066661954507076,-36.34369263629766,3.740409583755153,-2.885062439886607,-1.626363410034474,-3.2960936213136094,0.5969767503116612,0.13441425891538789,,,none
0.97935700000005,5.293013691393424,-40.19735139268874,-16.03261532329909,5.800686980826596,2.4336746484341742,2.1727723544469772,-1.6292967216277405,0.7723545323877397,2.6454411545423775,,,none
0.9913259999999582,-4.994368589343214,-30.1346998394503,0.6501260622504029,-2.7321726361890986,4.0349698985059,-0.5196900656686066,-1.380029021904884,2.2185183064189835,2.295092021197554,,,none
0.9984719999999925,-12.922073785242883,-30.614764173876,12.158933435390114,1.7385968692694154,0.00382969535819855,-6.259536645865578,-1.3425091448308069,-0.2540990271233391,1.589353734049786,,,none
1.0105310000000145,-16.291269172625668,-33.95470324958049,18.357869327346144,-3.75860223298289,2.9017650290512926,4.109563431234896,-0.3643718978239866,-0.8056617647658754,0.8913744208327528,,,none
1.0174849999999651,-14.406774534772687,-29.96155860666286,15.085718543343411,-0.20902648764986778,-1.5545920360641317,-6.696555938580364,0.08629009299164432,0.8478590187383284,-0.45396895163078493,,,none
1.0269309999999905,-7.514993287215962,-28.458734204780395,8.69811185820805,-4.001064256478406,0.5740905643249576,-0.25917856960761837,1.1261219846451842,0.5315645767273572,-0.6047500321015302,,,none
1.036611999999991,-5.340158045574918,-28.191079068563603,2.3661229147296825,-0.4287959482287048,-1.1249291052116779,2.4597358721720983,0.38459377051374904,0.07858384817352551,-1.062246785507006,,,none
1.0459399999999732,-6.7529280409039165,-22.38483271764217,-0.13220903401291542,3.2768210849269903,-2.4097207687275937,-0.20190931206784696,-0.2712622231326826,1.1457580509482912,-0.6220485910242031,,,none
1.055629999999951,-10.808797152414144,-14.825373092938621,2.758343092462949,0.68093352947998,-0.3512728206736928,1.6403326617653453,-0.7960801178665426,1.484070296639708,0.3355150148719597,,,none
1.0649660000000267,-17.488107644641975,-11.055009838644327,10.575452881532163,3.881059287967861,-1.0757219159856757,-2.4733998574050253,-1.3734123991977678,0.5892646125983553,1.30602467645802,,,none
1.074657000000002,-21.537840356677798,-5.916849763629048,20.22226652164323,2.4625885711429,1.994919893566071,1.8966053537661252,-1.0352287638436446,0.7723078736910862,1.870565448048253,,,none
1.0864520000000084,-25.221391339048576,2.2289685772688257,27.624426247746396,-1.6082195851845251,1.0580698207153958,-1.7167228182044316,-1.321586393206738,1.1879473847785345,1.524751696048065,,,none
1.0934680000000299,-30.76259806927829,7.874807760833217,31.885936185617062,-2.4457481395948824,-0.29175915350512543,-0.9994196170803074,-1.5081521765364563,0.4277776505662193,0.9967535825614716,,,none
1.105448000000024,-35.49067606630422,11.418476737435705,31.781944405577665,-2.3073179545703226,0.3317869939695652,-0.45844658790522447,-1.1549631897065487,0.10351864798125862,0.148014251715697,,,none
1.112512000000038,-40.62719384074008,14.535170203085652,26.9064318115005,-1.5223528843460634,0.7121748102061218,-1.020969606222464,-1.168002885324968,0.043893044337248555,-0.7645261061767797,,,none
1.1220299999999952,-47.28481502079426,16.083781855209928,20.781573717152117,0.01494422018069934,0.7135112006054081,-0.5962434711179155,-1.2901773090482287,-0.2466589944327154,-0.9077069279009491,,,none
1.1315369999999803,-52.693357496158676,16.846059056436914,17.10285426825428,2.4477996396718877,0.048304607986521246,-1.5438541073804133,-1.0207391434071016,-0.20317529022941083,-0.47104564967734935,,,none
1.1410459999999603,-56.96740062123464,20.1012527378314,15.344050804187008,3.42162747720526,1.8010190200171967,-1.4259545495303836,-0.9506345732280659,0.3908580288856771,-0.07626725149608134,,,none
1.15309400000001,-60.70522411618632,26.65093304770437,15.719889461889188,1.9834953384702072,-0.5387636591732667,-2.2537608016087876,-1.0019045003721612,1.072095337654247,0.37687846814041703,,,none
1.1601570000000265,-61.82023302602144,34.933420194166594,19.124583946598346,0.3508470102748031,0.6063328649582029,-1.5930821345131596,-0.6675232488484276,1.5191851263964702,0.7989451818956544,,,none
1.169575000000009,-62.02523951801821,43.8706440134096,23.034476006590072,-0.9876922681424765,0.8237038179962646,-1.171644953460255,-0.660573951237484,1.6540096109958236,0.8104150007757579,,,none
1.1790949999999611,-64.3613904742866,52.38789310265593,23.454513841994796,-1.9540982270180827,-0.5069056345654285,-0.04699693234475419,-0.9471626466664961,1.4400507735651438,0.4346435018305843,,,none
1.191235000000006,-69.63571870588437,58.45091269660424,19.39251667334769,-1.7387061763604825,0.08246348354932459,0.4935130779550096,-0.9878404029503994,0.9072327512981514,0.05841584494544728,,,none
1.1983020000000124,-78.18187940434052,61.1127320313409,11.192075082943525,-0.7592115495454008,0.4649793571547914,-0.44891327474290804,-0.9563297979103751,0.2825156051988699,-0.16278771406644585,,,none
1.2078030000000126,-88.43482691294078,60.96144162214946,0.9259588789849922,0.6869989444400321,-1.6269940076675482,0.47957869334597863,-0.9694961023834954,-0.13936724236922618,-0.2599553935598942,,,none
1.21732099999997,-74.53912558154158,58.47228295454457,10.232130467225925,-1.8228983489425095,-5.237109297413255,4.008096886539733,1.4540916015322038,-0.36441454011656926,-0.5421796907586862,,,none
1.22663799999998,-50.81258612569482,51.81417015809871,29.089674510949454,1.0706936460238472,6.0166897862999935,0.9493584806477288,2.9984511111595005,-0.3312522830895976,-0.14916676951441374,,,none
1.2361509999999498,-60.40054604301532,58.21463548281621,16.823044428088647,-0.8008073160382758,-6.246369242006311,1.2301005604816189,-1.4993109868265,0.7430934287837014,-0.8787767324926585,,,none
1.2456640000000334,-71.79470948840533,64.03176088456671,3.118398224556253,1.7809473869955026,5.709599935741524,1.8350660326764034,-1.2719403124489292,0.9469465053873197,-0.7422735164073412,,,none
1.2552449999999453,-68.124750450125,67.32284245426136,8.38807849238389,2.1445039136323167,-3.8841482500655147,-6.455142546135277,0.2460363369914933,0.6791538151903814,0.38524989076696886,,,none
1.2647660000000087,-68.28376826448566,72.9162007697821,9.527570340240077,1.3034049170098512,4.164522786396935,-3.704823025897882,-0.1740384273194108,1.101392578348121,0.2594611416841681,,,none
1.274187999999981,-55.162984576055926,75.219647685511,25.661337498562762,0.17028353855869047,-4.816900531477521,-2.001395191383104,0.5549880802645687,0.6476692724565197,0.7043781659535223,,,none
1.283708000000047,-30.02682200332843,70.08663240807199,51.8380483300275,-1.1565834142402571,3.269724017367314,0.8265810021568328,1.802315960653661,0.13498437487670778,0.4250062083229296,,,none
1.2933819999999514,-27.650840657931358,66.89204002260823,59.351598344050274,-0.8174883231952138,1.7083283365445856,1.3520030496693127,0.6402565687181219,-0.22429060230161255,1.0688763547988098,,,none
1.3053730000000314,-31.71693839012554,67.68986187270599,59.789733886672614,-0.43806388731811996,-4.125500620826805,1.9912591439533454,-0.2846096422376918,-0.19306679161439694,0.8524843599476135,,,none
1.3217769999999973,-33.0338351068044,73.05713818876026,62.63697192211605,-0.173994350594019,-0.9304685996139702,-3.5852035176596595,-0.7397299238332224,0.29186144725976065,0.4212106780113433,,,none
1.3313319999999749,-30.407808816239292,77.20712135061177,67.1431864125916,-0.09748141092025196,0.49642526894741545,-3.7333126076220835,-0.6869186292099683,0.4745215983525773,0.4305349194399974,,,none
1.3408469999999397,-13.68054710559184,77.04213696706036,84.66272053468985,-0.12694024093933834,-3.4038276148162985,-4.439456500874289,0.22504686298690985,0.7057125852840213,0.23826677963230017,,,none
1.3504590000000007,-1.502168705905648,71.82221502240985,98.53449031239956,-2.177945963109634,0.8420025585013682,3.4542647620961695,1.0397298064336808,0.6783841480144762,0.409971771044016,,,none
1.3624190000000453,-0.2860163914310278,62.56557289062263,104.06382138021154,0.3625261433273335,-0.017564463960275677,4.643742142160448,1.8171237564105607,0.4566431752482477,0.880234516934003,,,none
1.3694749999999658,2.4211201383849272,60.99801532103577,107.90142872792428,-0.5584164054444997,-2.9263892482218794,2.8673001270263594,0.24330318289481143,0.33423943321361194,0.28094617813719747,,,none
1.3789960000000292,7.0543077736203355,67.16983053585048,115.62021479818166,0.9812511470906196,-2.3692744006371207,1.6774433201354304,-1.2881701762886555,-0.08183947466010717,0.7012756150308621,,,none
1.3885040000000117,18.033637909775496,69.12484066231613,127.15491510837636,-0.5305700109318737,-1.9852544765562872,2.603377493710684,-0.7477044179286616,0.49345330654303876,0.25561772243610464,,,none
1.3978459999999586,21.994410159759326,65.31678534367055,133.11659313683563,-1.3824953817465124,0.6444993280932068,-1.6072358706285041,0.3972272910545876,0.7285378180259321,0.4494035279237218,,,none
1.4074229999999943,30.077333023578273,66.13907137139421,142.2074685754495,-0.6122112685751057,0.06391759041495503,-3.6052547533190307,-0.5916701658868844,0.3265204834419879,0.33130152368989585,,,none
1.4194840000000113,43.3603213039234,68.29854975761654,154.09780767237837,-0.3314803966357005,-1.1830210360073456,0.09194675599080385,-1.089609342275813,0.1752919445208412,-0.08849896186623832,,,none
1.43587500000001,41.65559147170182,61.29433443020487,149.6174456386264,-0.9574309666650417,2.6575627383396663,-2.1199583422437436,0.43921558239601993,0.6274811075717338,-0.395371259593136,,,none
1.4455619999999954,47.83347347637667,60.64662863664883,153.93967775575572,0.6072188930341861,-1.2666678197224044,0.22910210990378194,-0.4587553133447723,0.39785056453975987,-0.22938221622037316,,,none
1.4550309999999627,49.869519297794966,58.737990047058,155.39483212798842,0.809978914168597,0.5387008881817735,0.9890404165975276,-0.014102168913157152,0.4339710903593633,-0.07282646751850223,,,none
1.464572999999973,49.68183755097045,55.985954226682665,155.60304550986234,0.010626943691888475,1.7349020861491502,0.9210893942535424,0.254825673324715,0.4941654345829487,0.06134089690838137,,,none
1.474095000000034,48.84675611887278,54.00009498502154,158.4471106111851,-0.025985697011530206,-0.23125882078258747,1.7403637469586615,0.25113603934997664,0.3299960874416939,0.6936999915571331,,,none
1.4834319999999934,44.579251130879165,51.26040602911011,160.4980890803015,0.9486447318099178,-0.6016200084820209,-0.5670320038837393,0.6853226031572609,0.3345649504265519,1.0773551829708203,,,none
1.4929449999999633,45.682912543623935,49.053992659236606,164.62354770780905,-0.6680002759820219,-0.5495668786519213,-1.2742122925720774,0.0035981879184838906,0.4669395687596045,0.6429294492598151,,,none
1.5023949999999786,48.52332724568538,47.95933920521095,170.3989865645161,-2.0804222094365343,-0.05791956926914393,-0.7424659106539503,-0.3146341296581615,0.2982763112958041,0.7291219256869105,,,none
1.5119549999999435,48.29166665581615,45.862899934154086,173.44203759556078,-0.19889845019735802,-1.7024209972234912,-1.7915846633782084,0.09541182665754762,0.4146178104311301,0.629712458069624,,,none
1.524091999999996,45.78851407781197,42.04760177540974,172.29711774388684,-2.275621104452361,0.6918386309076808,0.8631530842919081,0.4568607799860655,0.717601075361517,0.10616399076914075,,,none
1.5309939999999642,41.0301642635417,38.59799499871017,170.52734609570277,-0.04932542099974911,-0.8074527533977558,-0.6049533128173001,0.8246695854371454,0.5794611710626703,0.2500439948903411,,,none
1.5406749999999647,38.965247643690994,35.87875504143463,169.84558061499243,0.8563637760218874,-0.7388359457766107,0.05504896756475584,0.4197841851052122,0.4860820302411619,0.10098082739314586,,,none
1.550175999999965,38.262776025691394,33.254791687221186,170.2397891711832,0.16611390705893403,-0.015825074335649798,1.329248397749248,0.20688566758543375,0.503373629278581,0.14574447963966397,,,none
1.5597030000000132,36.752665912567444,30.812300558898357,171.93634759533674,0.19335437970441569,0.0268669521248217,1.3505392711129685,0.33031308707780094,0.4496901756839681,0.4870098971923611,,,none
1.569199000000026,35.02415473112998,28.494989902391776,174.73976410720448,0.09568184401514528,-0.4965897587881269,0.4049103678083377,0.35307935213686215,0.4326057146791267,0.7194781094152644,,,none
1.581007999999997,34.18035982625183,26.296038882531203,178.0677534871216,-0.1486777334749349,-1.2056617276054422,-1.1405655947989213,0.17684402246592013,0.4368409637315755,0.731042804395639,,,none
1.5882259999999633,34.216790402956796,24.513921071090515,-178.6994478734427,-1.000027778688323,-0.6427830240623688,-0.2715428798769686,-0.00598859640828877,0.36356412986384123,0.6311435093989375,,,none
1.5975690000000213,33.8786437290579,22.597566881663138,-176.68608350301454,-0.86453593387144,-0.755835680393529,-0.5610293880429621,0.04449438102994743,0.39262877091246845,0.4174279096489557,,,none
1.607236999999941,32.36503303997219,19.95982438134653,-176.43258226296018,-1.3179747928907715,-0.1023040150747827,0.5483206819641067,0.24746241129739158,0.5512155511771988,0.1485425589096872,,,none
1.6165760000000091,29.988262895120428,17.183293857053894,-176.9841662036369,-0.5996284994412143,-0.3684702003713335,-0.729172170698485,0.41512383208052445,0.5884109894667011,0.029492272932917292,,,none
1.626278999999954,28.199335710517015,14.401630451139459,-177.32249388113183,-0.05376958532327016,-0.09064948813393982,-0.06844877225470361,0.3126183351157558,0.5812153074876069,0.018424990155624984,,,none
1.6452789999999595,24.704677599888953,8.344777149892401,-175.3549319055127,0.07575488632107992,0.18996624712328505,0.8126920639278449,0.3011820863033463,0.6243884136826355,0.38113735758781575,,,none
1.6547990000000254,22.6442010745467,6.093234330347461,-172.49565279414628,0.2417936979325705,-0.29195591881381705,0.33387515040272214,0.35340576140605534,0.4993633349769018,0.6341850192521097,,,none
1.6643169999999827,20.43386067460902,4.220607422355892,-169.13843048824148,-0.011325328579044428,-0.607593379644964,-0.23983633617499958,0.3685147993425062,0.4481133869426511,0.7220591066856338,,,none
1.6738490000000183,18.562596901438898,2.5508256319895306,-166.11019742463245,-0.3520962957994674,-0.7817874568485769,-0.23388635577247824,0.2860762223463824,0.41421330470114887,0.6407713929437352,,,none
1.6833390000000463,16.731703483799926,1.0104276807664487,-164.07217133276626,-0.550991026042478,-0.7662392430609037,0.2279789115645528,0.26667156535701303,0.3995956796440207,0.44292326574416874,,,none
1.6953029999999671,14.610955144055634,-0.7289360480452296,-163.1636118197236,-0.7328382018534331,-0.6939890108486143,0.18494966711882954,0.3005302365080081,0.4613698327211433,0.19646142891515336,,,none
1.7023149999999987,12.47573096867393,-2.821413287857663,-163.04032953666533,-0.7786190559020901,-0.6128382519380753,0.04382499393497008,0.2780811849764378,0.5328506592800002,0.022281910725171137,,,none
1.7118239999999787,10.409773047751218,-5.249686114941325,-162.9869821454923,-0.6537408665334563,-0.43870281758515917,-0.07274987693414131,0.24329568766981932,0.5935179115965294,-0.0060661295462815035,,,none
1.7213349999999537,8.406152887775464,-7.9463422677864415,-162.24168140421654,-0.40380231935652483,-0.2556337481960071,0.08251157938362932,0.20927542069558025,0.6424064198790914,0.11572617449221062,,,none
1.7308500000000322,6.233657754910879,-10.533708449504926,-160.3374535477511,-0.13455841971720228,-0.2080766481135607,0.39875146707120596,0.2304475945404358,0.6361927334420091,0.3323405804211448,,,none
1.7403610000000072,3.7273474967632483,-12.500622102853884,-157.23100698951154,0.06374090140718174,-0.3041390167407359,0.15523509132763547,0.3052716062572362,0.5523444491188676,0.5466464487026059,,,none
1.749877999999967,1.1168449916079648,-13.78619282231829,-153.4174060797927,0.19773332203226898,-0.4130203807187155,-0.21285233144587004,0.3437611445089566,0.4530558133185345,0.67080614581948,,,none
1.7593930000000455,-1.3315643750495998,-14.704026880976189,-149.68248517771784,0.2012658253903253,-0.48736484905314564,-0.27542345303312643,0.31838552588314045,0.3940097075058006,0.656794355134976,,,none
1.7689070000000129,-3.450003963371873,-15.458699428779953,-146.67933792681134,0.09160602906425318,-0.5213571809487365,-0.09227334660769439,0.25602706241345063,0.34999790032949424,0.5206127801174854,,,none
1.7784010000000308,-5.194510549963634,-16.14227580892031,-144.67365628016978,-0.13905855144437324,-0.5684179290303808,0.0916875227449944,0.1876537852057118,0.30807222814696117,0.3273835072644993,,,none
1.7879100000000108,-6.70670323866269,-16.93035426770705,-143.5115740867596,-0.4517742971649771,-0.6048499263052503,0.19329988107138796,0.1295797246441529,0.30352101622324573,0.16061572001723584,,,none
1.797429999999963,-8.153350001036998,-17.95839470024806,-142.66521355499904,-0.8232773483285329,-0.5754688526109603,0.019058889450362358,0.08424750107234992,0.33600143589203046,0.09560546876714099,,,none
1.8069339999999556,-9.562461954165498,-19.206881042099834,-141.4520294324782,-0.8799262890355728,-0.5254602254052309,-0.059043186031119535,0.04401422505147954,0.36690066192129356,0.16668585276268508,,,none
1.8164430000000493,-11.237887146359487,-20.50695130363933,-139.37796832183395,-0.47609898418467994,-0.4753162188362295,0.27339843242549416,0.06400334232872683,0.40663666807861676,0.31897654254754143,,,none
1.8354839999999513,-16.249167712991696,-21.79817125857359,-132.6286588673766,0.043575631901853804,-0.10835051129871887,0.02916159172643824,0.279246943873028,0.3934975252979855,0.5814704538507116,,,none
1.8449849999999515,-18.877519348736357,-21.46425884983829,-128.80718761007515,0.25680027743910216,-0.08954930269583808,-0.16781721430126342,0.35615295288377546,0.3297813982293794,0.6015630512866781,,,none
1.8545139999999947,-21.377749693547038,-20.696843898458322,-125.45279487234674,0.08623031896132867,-0.06188117090602897,-0.4284611947393834,0.39063883858716864,0.28163307206606913,0.5178612261758392,,,none
1.8735580000000027,-25.159523658387435,-19.233978308332112,-121.04699312156977,-0.12228976595184365,-0.31042793725220835,-0.14140854945339074,0.26846330121348555,0.21722474541317943,0.274251673182709,,,none
1.8830470000000332,-26.687797626535545,-18.7402910064056,-119.70335489135385,-0.4010365425571532,-0.5452926410111101,0.06395175982448233,0.21768243478380872,0.2006162955481101,0.19791370472116268,,,none
1.8925239999999803,-28.02156812870811,-18.1757685144641,-118.4226256293868,-0.5789316971604012,-0.7025021196643331,0.15590784331594842,0.20791834779929444,0.167226926401364,0.19925697187839825,,,none
1.902052000000026,-29.409384651056666,-17.561479816035256,-116.74432930655594,-0.7042742139071173,-0.6923365957676133,0.09193230751530608,0.2175674986753145,0.17779800224367856,0.27854576955466565,,,none
1.911546000000044,-30.900348601818852,-16.893704672302075,-114.41463355432141,-0.5587480469715889,-0.6122409956432229,0.09203484936746549,0.22984722840315236,0.19925983730297997,0.40638744080627626,,,none
1.9210560000000214,-32.56796766131698,-15.94915502292427,-111.60583158301989,-0.31889766045408,-0.402646926585921,0.06608220410277599,0.28546571958967665,0.2200187103465283,0.4920632290328252,,,none
1.9305859999999484,-34.23719097702895,-14.630398571897087,-108.74696973604547,-0.16350352810324753,-0.10285892793209289,-0.09685639996380215,0.34537089693245254,0.20990491330723038,0.5098827984038,,,none
1.9400920000000497,-35.7064332493119,-13.131897356201582,-106.15954729105366,-0.007258302843146399,0.08910687342736714,-0.20191809643990108,0.3583203759779298,0.18014564141735026,0.4724698644757398,,,none
1.9496030000000246,-37.03103673318913,-11.615551857461917,-104.08838521373414,-0.025933296047995255,0.09233675858887631,-0.28280053619857876,0.3472490966601384,0.16804066697778464,0.38162442415031367,,,none
1.9591199999999844,-38.207977714799426,-10.104280157124998,-102.62492422218016,-0.1064060424860795,-0.018698207306565868,-0.23289600676194994,0.33457488836662835,0.151997593346989,0.27442582722784453,,,none
1.9686490000000276,-39.137303584620696,-8.616734524061304,-101.53191828677181,-0.24636988493011766,-0.27415580651751387,-0.12762723266922918,0.3164177930336891,0.1136664978779093,0.2097929688294417,,,none
1.9781570000000102,-39.74580551576709,-7.095744357816174,-100.50378646420609,-0.37265057287252634,-0.5597356790763182,-0.1285077517618172,0.3087825827514654,0.056387126336287174,0.20947658015683263,,,none
1.9876570000000129,-40.20889103777899,-5.4712010933608255,-99.23296785377336,-0.4107041040640766,-0.6811985935128159,-0.15571860995847134,0.3231105364460326,0.03084537548648125,0.25826347916411935,,,none
