timestamp,roll,pitch,yaw,acc_x,acc_y,acc_z,gyro_x,gyro_y,gyro_z,acc_mag,gyro_mag,markers
0.0,21.60931287498807,-60.014595217753985,-21.31814204613187,0.2273629337471199,-0.7761066837028758,0.5201351597478284,0.1917244824525763,0.17464637457694013,0.012948932017824774,,,none
0.009505000000000763,22.42756170157612,-58.94536119989009,-22.103402868606945,0.10748523447433525,-0.7147055249615396,0.47163085028259943,0.1564897727549171,0.16812270811585278,-0.01608705654629264,,,none
0.019021000000002175,22.675241156842254,-57.86490758727486,-22.36369752692969,-0.07394465364648405,-0.5084216191441042,0.1967546162627213,0.1059064576449273,0.1904197951024595,-0.009874995380048634,,,none
0.02854200000000162,22.46240890500559,-56.956989233180884,-22.24772913216396,-0.19795737337148037,-0.3065987341724331,-0.06244122568996468,0.04776386505977283,0.1768978828499771,-0.012686474254640343,,,none
0.03803399999999968,21.99673260491389,-56.108950947978066,-21.739651274058417,0.15900096549503978,-0.22286934084691276,-0.29872333333540363,0.01582342881633366,0.17670675313268125,0.011783105262831767,,,none
0.04751300000000214,21.28793708849826,-55.01492941418297,-20.93381217800693,-0.19673982153701616,-0.07541359793933523,-0.05728970068532211,0.004878188341369007,0.2332357741794899,0.03740416327793143,,,none
0.05709399999999931,20.397520980018793,-54.04599633250546,-20.286583703250034,-0.05694675149079474,-0.03654123252875828,-0.1481755607806141,-0.028597219712149822,0.21798942530768353,-0.021843604161903885,,,none
0.06661499999999876,19.747302875080614,-53.64763929451378,-20.068799648841036,-0.0311430154684659,-0.047438113624183195,0.00954842885054193,-0.044619903264172915,0.1013386128926393,-0.07110422074467407,,,none
0.07606700000000188,19.210072194376526,-53.449135792798344,-19.980336208286936,-0.16871879476218513,0.010113110800286259,0.35083425486937425,-0.046473255531598166,0.05919522467194306,-0.08331552100235697,,,none
0.08555600000000041,18.502798904192574,-53.02953841234216,-19.77336838952924,0.04788587820146505,0.05159410377466552,0.20050676996574177,-0.051198041555629376,0.10779297660201458,-0.08503212959386439,,,none
0.09509999999999863,17.893660456056644,-52.651016305016086,-19.547232953327747,0.07777853908279689,0.09547455073113753,0.16240610093864125,-0.043933926961695034,0.09612937317961621,-0.06570114013853726,,,none
0.10456699999999941,17.476279057888206,-52.48939387354555,-19.379775752559958,0.11324627430781496,0.11770969247430921,0.16513125979737617,-0.037131710394972685,0.04741600378101009,-0.04501326054713135,,,none
0.1140989999999995,17.14550186721755,-52.250680025813544,-19.11659346392084,0.15644930861191816,0.08528047020550654,0.09552953079864653,-0.022443976952050422,0.058443164317298464,-0.009538251763697866,,,none
0.12365899999999996,16.93146744194939,-51.7387469603413,-18.680281369666098,0.1446639302228072,0.06572281898706048,-0.0029347784108410954,0.0081859144250132,0.10552733639069058,0.04259828707617094,,,none
0.13323899999999966,16.954742122565342,-51.25120709774568,-18.25592410666975,0.12910296766190404,-0.02277267817962976,-0.10412174863196683,0.03952311876043511,0.12458944801016429,0.07670770102517602,,,none
0.14271300000000053,17.028788818447765,-50.58168047004367,-17.723216207893856,-0.032109463050723104,-0.14488234002536857,-0.011112246170633054,0.08281856484511653,0.11931800867101978,0.10867361884186842,,,none
0.15225300000000175,17.209300627044954,-49.69641320793689,-17.177542273691394,-0.09091613239764726,-0.23120102651308905,0.015758404431349286,0.12488241421570792,0.14110937826768433,0.1291156064730378,,,none
0.1617740000000012,17.30172130689993,-48.57239566271816,-16.59599998209432,-0.14857066053002965,-0.31741402017883596,-0.052624793372696044,0.14843809835921265,0.1788488879453436,0.12424330097791733,,,none
0.17372100000000046,17.344157638049595,-47.36790709422849,-16.038615125086515,-0.16623171132830997,-0.36496264812125195,-0.10105867289624904,0.1582345705285329,0.19161541004775598,0.10992938084718777,,,none
0.18078099999999964,17.37110736191413,-46.088761913821564,-15.552314473745152,-0.22314610142885563,-0.3481933704069637,-0.0409411184149385,0.14959013634218155,0.19693295843686823,0.09203770885455378,,,none
0.1902930000000005,17.05738335808383,-44.714494139133485,-15.010004678945904,-0.23534481974777596,-0.3327341096280125,-0.03589074771083981,0.10258330056980311,0.22589420532646015,0.05407457035883736,,,none
0.19979100000000116,16.344717108971157,-43.33741337705798,-14.309157406373158,-0.16318820451424168,-0.3400473861249237,-0.12404477543913842,0.051937281995634375,0.2536926571630612,0.030004452879760373,,,none
0.2093120000000006,15.721217974026935,-41.868347210438536,-13.624188834570692,-0.19128395525437447,-0.24484475791285715,0.0018171514320852182,0.03442339170721989,0.26654015183052004,0.0403101038778238,,,none
0.21882599999999996,15.110946912638829,-40.318262679051486,-12.98686091817173,-0.12531175111293247,-0.16992173601480123,0.04654322300235498,0.01727732635431407,0.296993695238672,0.03327765921211732,,,none
0.22828600000000066,14.560111439667962,-38.668423439640314,-12.500864311211888,-0.07427793300861173,-0.13316795135198317,0.0545984503825103,0.018010113667868734,0.3286984766496315,0.01917129178721119,,,none
0.2377660000000006,14.325127507779495,-37.031138725404126,-12.248070557345304,0.045033314811953475,-0.11102417016743293,0.019318643140382015,0.057913439979459434,0.34057217011397023,0.02141557640226366,,,none
0.24731200000000086,14.561175081602299,-35.22687782933112,-12.230802529950447,0.003006065436755508,0.007231543385507632,0.14562539056199889,0.11389096580205182,0.34494744859419074,0.03132287425539398,,,none
0.26631499999999875,15.32762436033421,-31.539601864662615,-12.327342848670147,0.07233066627056858,0.019823093865538315,-0.10823726809502926,0.16057016499729393,0.3609026942034923,0.046970672751845986,,,none
0.2758129999999994,15.787148703453612,-29.601041829855248,-12.176238263031314,0.03379962379681459,0.043506600543880364,-0.18844087831834908,0.15978353179310445,0.3624879300410631,0.077046025301613,,,none
0.28533099999999934,16.123347884377818,-27.66107707345021,-11.773798192972395,0.015593884821045748,-0.015573831152929886,-0.27362422728596797,0.13839266249079568,0.36770891788768567,0.11282342878798558,,,none
0.2948139999999988,16.438552197969234,-25.71121569466145,-11.130248323300703,0.035880213988423296,0.012495738147841879,-0.2649773878956387,0.13278276215223794,0.3714363240171559,0.1571816927903003,,,none
0.30675600000000003,16.658907997149974,-23.7624895030878,-10.39261194757637,0.07095950629063429,-0.038755536036615246,-0.1744076784164376,0.11222359729458375,0.37583399097589554,0.1661364673592584,,,none
0.3233680000000021,17.32586606032234,-20.113064152698872,-9.436111798341454,0.24336594209312712,-0.09025836341803332,-0.03916181042115355,0.12805735749631136,0.33544497997264333,0.09309108953024803,,,none
0.3329480000000018,17.582098072560022,-18.903099178760186,-9.341115448194635,0.2786604773614412,-0.14461312565032905,-0.1031089201931362,0.12147579071237678,0.29766844473146825,0.017654286463959643,,,none
0.3424739999999993,17.80647947525629,-17.758091323106942,-9.51062254740914,0.1669599486559298,-0.1887549804954985,0.009243169093525305,0.12063568568641718,0.25312716844707206,-0.03909607232188956,,,none
0.3519660000000009,17.831306847309527,-16.672157217551554,-9.748612363563755,0.03952167867608849,-0.21410455906477577,0.0024871700057798336,0.08764161355149608,0.22210029755300328,-0.06717798837973576,,,none
0.36147800000000174,17.704302000524283,-15.576318884639123,-9.836773428504126,-0.08332826258070966,-0.19588480425913327,-0.08223675294297142,0.059532715595412324,0.20081893344250032,-0.04666282569301775,,,none
0.37098800000000054,17.509146600079546,-14.409922472840307,-9.623594304595315,-0.2293313308481429,-0.16436691717752203,-0.014210064525388342,0.03816634934232943,0.1861975109954712,0.010030175046752967,,,none
0.3804300000000005,17.49327447809729,-13.51695930229859,-9.115128093082454,-0.2375935353634564,-0.09022894863774314,-0.1410145918107293,0.025896385124401664,0.176930694113553,0.07920409317728215,,,none
0.38996799999999965,17.535911924225548,-12.618084496230408,-8.354903712711579,-0.24127493135149003,-0.04673479248251118,0.009206853250532266,0.035418927721070255,0.1766498905616942,0.1368183936842941,,,none
0.39952300000000207,17.609285865175124,-11.54016979889501,-7.513941867444733,-0.12986275066615188,0.017128903893956368,-0.026745364136786697,0.04387534539062538,0.1821293510352648,0.15467780265720993,,,none
0.4090309999999988,17.79446903993329,-10.646721179660593,-6.842541594015646,-0.006277775180708831,-0.00840130062537881,0.027832045611872063,0.06027482412095765,0.17196976743647127,0.1295752349120587,,,none
0.41854999999999976,18.041509200323553,-10.017415862695838,-6.446132290388385,0.13921897214810083,-0.015729423977120616,0.02474815828768159,0.07017238660799409,0.150372777246143,0.07459696056406193,,,none
0.4280460000000019,18.30257183843536,-9.590186282387906,-6.320897626464252,0.22488582271713609,-0.08039629440631402,0.020761662292158752,0.07845623318370692,0.12633057213691398,0.01585209001824422,,,none
0.4375579999999992,18.529775230603843,-9.321002300154817,-6.404404525138566,0.2396099623484635,-0.13474614924985098,0.0051455407866991135,0.07872417918524431,0.10247447440345672,-0.027788055843996906,,,none
0.44707899999999867,18.6989848905074,-9.140387793530273,-6.537165394861704,0.19509927721680007,-0.16694901021644434,-0.07259194454075017,0.07640357223437819,0.07775435388536021,-0.044371131622439566,,,none
0.46598900000000043,19.264978121784477,-8.460499578335067,-6.519747266106616,0.01497752566718111,-0.20528752569145364,-0.2567470721511087,0.057371109418395,0.061508934377483844,-0.0011972568021610768,,,none
0.4755059999999993,19.425044647010644,-8.042381582719972,-6.242635615745331,-0.05524158759459029,-0.19988040407494578,-0.37104251010070094,0.04073676666828192,0.0797168833403885,0.03472544147743257,,,none
0.4874730000000014,19.45442769816875,-7.5099012722288965,-5.832715769736885,-0.07458811113470794,-0.16532446613550894,-0.5029857827124077,0.016899945987657143,0.10542697944149097,0.058735815237291655,,,none
0.49460399999999893,19.308909957678534,-6.892237062377582,-5.397198674569831,-0.04709149145591617,-0.13042470974295356,-0.601816472897775,-0.01679147009802479,0.12588734019223505,0.06084079332918549,,,none
0.504052999999999,18.977564182271532,-6.241395292882726,-5.032532477336532,0.02714409681987045,-0.0232516029789783,-0.9292524611018587,-0.05391160966890101,0.13571374370862554,0.04475947262118779,,,none
0.5135670000000019,18.56052469412239,-5.635786859163016,-4.779668908194323,0.021676644758213476,-0.035017095319722524,-0.9702059813760817,-0.07249696461813472,0.12784555540768597,0.020621403035699645,,,none
0.5230789999999992,18.154743935588467,-5.08504773878528,-4.609944921569993,0.0185112752658914,-0.024130764267016925,-0.9566307612178466,-0.07172388638397163,0.11643887777738003,0.0006814074133905697,,,none
0.5325869999999995,17.70883596527441,-4.513924297711409,-4.488433266436445,-0.007590972958015787,-0.028701011758741537,-0.9481095149445754,-0.07974517897472008,0.12096209259748654,-0.007293909547318431,,,none
0.5420860000000012,17.24530837477177,-3.9080562837400756,-4.352150760189971,-0.04397960805346408,-0.024672982713549785,-0.9654649503095477,-0.08305869683686418,0.12799714488296787,-0.0021306667663643208,,,none
0.5513879999999993,16.792664996838326,-3.318276325229846,-4.170794681720079,-0.05313343714438257,-0.004708655246214954,-0.972961080830007,-0.08153772146386577,0.12440481641194152,0.009563962102653754,,,none
0.561116000000002,16.33087318687261,-2.7320515972524215,-3.9051929206346707,-0.03826076215660313,-0.01681817282039252,-0.9407604354865676,-0.08396029913831538,0.1234996496257264,0.02534148350337689,,,none
0.5706230000000012,15.907310109685033,-2.1000515543393474,-3.5594238916951806,-0.011214058571355207,0.011993863378606084,-0.9741175466804078,-0.07644813312216792,0.1317080302116686,0.04232584936919879,,,none
0.5801230000000004,15.501424175654476,-1.4431467924754675,-3.1906550850511186,0.02453428773832616,0.012411237049314619,-0.9449240566808739,-0.07347651627948938,0.13600758767178295,0.049023780203584076,,,none
0.5894820000000003,15.124449007748042,-0.8208833622165607,-2.859517102709791,0.015522673662357529,0.022913178667244176,-1.002245369547344,-0.06890893660736475,0.1283308667810516,0.04243822898339728,,,none
0.5991090000000021,14.779090761685731,-0.22744380181534288,-2.6163158352166,0.034446026243063664,0.006223358308909794,-0.9299262904445832,-0.06349448093786296,0.12193116651824383,0.02847816162287842,,,none
0.6086740000000006,14.425174673918775,0.37547162251581573,-2.437028355338082,0.020913745218290886,-0.004246893051461555,-0.9861348508815557,-0.06558684834611893,0.12366023226943187,0.014468064843442695,,,none
0.6181200000000011,14.081981879648218,0.9704626392959468,-2.3221850794983507,-0.016866487586102808,-0.019616917614215974,-0.9479554191330394,-0.06381055822257602,0.12182278338935641,0.003714923452524221,,,none
0.6276879999999991,13.709845307231697,1.5425710055374677,-2.244109891601317,-0.027462532240775966,-0.03646406833018194,-0.965992381278908,-0.06995587829005183,0.1173715266152304,0.00018971511765377932,,,none
0.637202000000002,13.323299924094647,2.1221900778016223,-2.1241910104560136,-0.03670553320436136,-0.04897348852106795,-0.9408715009838547,-0.07297625687798141,0.11885279156354372,0.007079454808088435,,,none
0.6467139999999993,12.913849323164255,2.7443970974167344,-1.9331598991768244,-0.04667970626203074,-0.04336580032187181,-0.9427317961636962,-0.07755887080169128,0.1273300061134911,0.02131144379908185,,,none
0.6562179999999991,12.486744139102939,3.38428788046697,-1.68971206485925,-0.02600309728913572,-0.03156359443876823,-0.9608739590607095,-0.08140620488729747,0.13068800705940023,0.034853345785090944,,,none
0.6657210000000013,12.057969887677674,4.015558747061026,-1.395723851787637,0.00021375447668089376,-0.014106071672474496,-0.9467803773295463,-0.08236244285262453,0.12857255328396647,0.041971908063633226,,,none
0.6752380000000002,11.625474949657159,4.648312629770791,-1.106817818469212,0.02244907413679688,0.003751788325411105,-0.9627148637788762,-0.08368557097933237,0.12846283892491203,0.041916570995539436,,,none
0.684744000000002,11.202656743735899,5.28230008812314,-0.8602057085585053,0.02637966407987601,0.015810921245715603,-0.958475437409673,-0.08227253473567839,0.12828542488233696,0.034414944757625146,,,none
0.6942620000000019,10.78813256453993,5.892643880505254,-0.6997902759100936,0.014654061457503509,0.021310165317568675,-0.9746451937459139,-0.08102935491204158,0.12325063500857837,0.021846261717216472,,,none
0.703716,10.385672624160964,6.471420823107224,-0.6062303668249925,0.0032990837024786694,0.010985438873234063,-0.9546381314189198,-0.07887389662341525,0.11672827359505294,0.01015028847434838,,,none
0.7132849999999991,9.995813885122091,7.0500065587889384,-0.5083617917028176,-0.012836714691935062,-0.0008549104563696497,-0.9546467842382294,-0.07650632945173326,0.11651230188737462,0.004804948429141579,,,none
0.7227980000000009,9.615315169692392,7.648573126382458,-0.4012335969866573,-0.02939396670032849,-0.015621725198386258,-0.9430894228883039,-0.07472651026930133,0.12036447588458751,0.007863172145426929,,,none
0.7322540000000011,9.245000001319022,8.257265559598887,-0.2665595676886113,-0.03426036327793992,-0.024972749255320795,-0.9464698905215749,-0.0728304371432773,0.12223178020618375,0.016514520729454606,,,none
0.7418170000000011,8.880003695312016,8.874947761947404,-0.07696568778971379,-0.0202237237824479,-0.03080202567464683,-0.9347356264983459,-0.07200925322424465,0.12382070879177506,0.02742265824508145,,,none
0.7537739999999999,8.512481571989115,9.514628438884428,0.157737515535125,-0.003992097962258369,-0.02897499064257131,-0.9401718891462252,-0.07285409468136968,0.12795465967928094,0.03651797504684606,,,none
0.7608320000000006,8.136795037918313,10.164450841627518,0.407402967699812,0.008352831503164048,-0.02130946355179542,-0.945977123139016,-0.0748855618169614,0.12966421104833442,0.03969208974344232,,,none
0.7703419999999994,7.743354344069588,10.79501901494323,0.6328967944518443,0.015897534711532293,-0.01411598985597655,-0.9513328073108122,-0.07873584158048101,0.12546079195474386,0.03538195696310295,,,none
0.7798049999999996,7.332186860775552,11.400393730626991,0.7906439877177999,0.017197414045153226,-0.008887735706136731,-0.9486747264420244,-0.08239476095088835,0.12011893531389553,0.02630105954887572,,,none
0.7893630000000016,6.903188178024699,11.994815392874013,0.8853870113891589,0.00749287248424438,-0.006374593411383059,-0.9405612453980915,-0.08594160756364462,0.11769872314433473,0.016960424550426543,,,none
0.7988369999999989,6.464297232137935,12.582189759001869,0.9418889462409533,-0.011443719561955569,-0.009858369198480542,-0.9366369482755912,-0.08782299184081915,0.11614622477261134,0.010841499875370295,,,none
0.808402000000001,6.027360804774997,13.163519674144718,1.015465117925228,-0.021863226614510654,-0.016343115409728628,-0.9136481528610141,-0.08738113164095831,0.11482772106993203,0.010147993126089543,,,none
0.817893999999999,5.603765218429364,13.65088503727091,1.1207690831337611,0.5108151654640801,0.07087341891331747,2.8837357613699006,-0.08441443040486617,0.09592932797164523,0.01473865475637023,,,none
0.8274059999999999,3.7359308823160746,11.287483075787353,1.0582516445772447,-4.992421071269654,-4.639534205104337,7.859665511003034,-0.3553653992572104,-0.4805727478910184,0.032281692158256006,,,none
0.8368040000000008,5.960428171817051,1.8583228520456059,0.6683507932938351,-4.341182833480846,1.0445473451603677,-6.080865867776604,0.47740451558448704,-1.8792758600536374,-0.20254272691750433,,,none
0.8462350000000001,6.608657900878987,-7.5310095497586325,0.16048839510737778,-6.083622715428453,-0.17659843645172918,-0.7231343603574069,0.15066940063794562,-1.8783712092815315,-0.18397126181768816,,,none
0.8559240000000017,4.951390453429216,-2.629557981287587,0.18186778898321046,-2.953462908865471,-0.5866682752236393,0.9474494210970476,-0.33552626246416967,0.9796320624522787,-0.07145020980514334,,,none
0.8653380000000013,5.091014280846384,6.9076232997761755,0.2699787369107082,-1.9957009107682881,0.4282349177640428,-5.285692058792431,0.021445055223051443,1.9096158327369108,0.02862313600930931,,,none
0.8749579999999995,5.175082271080123,6.812319896798392,-0.5192334413579058,3.422885939335142,0.2303508650567885,1.9047514963374812,0.01667040706571985,-0.019118349160779667,-0.16002622157607546,,,none
0.8842870000000005,4.371337313752241,4.162173697451376,-0.9262390452555922,7.259836376228185,-0.18475531340953197,-2.320243491795465,-0.1660116404439708,-0.5288161607210047,-0.10389720176103492,,,none
0.8937859999999986,3.9243323266460743,3.8518800083980818,-0.8015139964134039,1.88936019573254,0.3795663205169426,-1.5908980706602482,-0.09011680253405384,-0.06090719357330672,-0.0028151782526394595,,,none
0.9033429999999996,4.466186268799344,-8.103879273210513,-1.6560396507296287,1.3050366683749992,0.05616181848680293,-2.5029522053570568,0.06458562542244925,-2.3953961976510736,-0.236393475348471,,,none
0.9129980000000018,6.411446018431546,-19.654079008111026,-2.8748297638011313,-4.270894967681171,0.18297271202178264,4.59439321869506,0.29559971649427497,-2.32448541028942,-0.23365833334995884,,,none
0.9224020000000017,7.5838560522396925,-21.38775951442104,-4.3362886095282525,-4.385984383678446,0.671368286355979,-4.701215538314952,0.19831627588570058,-0.3598528247714084,-0.2565388006768527,,,none
0.9342949999999988,9.392299788010378,-21.755506413751007,-6.445522323961389,-5.127780295749502,0.41319308400541777,-2.1916696646372413,0.3284508553601913,-0.10454261965428244,-0.3166868396339093,,,none
0.9413629999999991,10.913539098052954,-22.14664442284395,-8.228696768741564,-1.0268043026901719,-0.33735724475940465,-1.2088673258749127,0.2703249588583392,-0.1134283059841625,-0.27029793220116194,,,none
0.951039999999999,11.882080231242385,-19.32829517583473,-8.410638525349182,2.3004820341171612,-0.4986540265238316,0.6600206084659868,0.2608407663618056,0.5322279871932819,0.020440660203159905,,,none
0.960369,12.060596074780845,-16.695720079512093,-7.321388514803386,4.530509696701027,-0.7380130623470315,-1.1360071855217309,0.10572161902880543,0.5175098714229569,0.22503950483615506,,,none
0.9698200000000021,12.3395430017816,-20.55172626559968,-6.398484055771262,5.483602709609271,0.28870204922265774,-0.1985532421649979,-0.03927766703832222,-0.7728715575309598,0.19127533486989573,,,none
0.9795650000000009,12.036568604058969,-26.920935930912165,-6.166770087274242,2.221422127794448,-1.2224569600059774,1.8220260781554276,-0.1926790208150101,-1.2618250109598304,-0.016221265104240438,,,none
0.9889080000000021,14.193703620265337,-32.568575655604334,-6.57072935980876,-1.3023047665826408,0.6585498480879874,-0.8759366609288097,0.24995560377171766,-1.1647196267391322,0.0834710220331221,,,none
0.9984059999999992,15.879394651344867,-38.33626109302102,-8.881256936757287,-3.87277685519801,0.4565498473325066,-1.217908149287225,0.12021984085914668,-1.1809566762764114,-0.3227726017204576,,,none
1.0080039999999997,18.883506094883135,-42.32142674171481,-12.899766288520546,-3.0157893679837735,0.8163520744990853,-4.048817662786671,0.30151352609743276,-0.8693906017086456,-0.4640626576531679,,,none
1.0174950000000003,21.70299989739646,-43.21986131836204,-16.47141957920649,-2.404608687658937,0.4167273523527511,-2.78769439882396,0.35569756182338896,-0.2784775107927393,-0.36762819837265687,,,none
1.029471000000001,23.647610354107304,-41.99117762157827,-17.968751840017593,-0.5556125739055281,-0.29344728199043724,-2.171426776665668,0.34647627804581105,0.15027280887994657,-0.04659363323475438,,,none
1.0366309999999999,25.183696409452818,-40.919252221541896,-18.417375101778784,0.37304519544256104,0.001615699598433563,0.4258070625379109,0.28598659531030823,0.13191269288772817,0.11379635099318332,,,none
1.0459780000000016,24.656578869132456,-41.613464001754544,-18.650282931856474,3.6113463718717114,-1.3951974347227374,0.4370869637834985,-0.1193979114004698,-0.10657131596464595,-0.11624161309760657,,,none
1.0556470000000004,25.02712896259942,-44.05138284996023,-18.477828133890426,2.340689505400399,-0.28523622301713025,2.0542754003203236,-0.1035657258458459,-0.4801053828834319,0.07282117042890143,,,none
1.0649440000000006,25.608875773529057,-47.89084226209675,-19.598783143869717,2.1026454405532244,-0.7708058393100596,0.06327482079890592,-0.1733805653715774,-0.7533066039963352,-0.1664210794228754,,,none
1.0746770000000012,29.87646261505304,-53.115771784060655,-23.00337362662533,-0.9394269421742045,0.22199492329475004,-0.26895242010854836,0.12820220912496194,-1.171398176364803,-0.05244110844043529,,,none
1.0839999999999996,35.03799631533516,-58.00971602036552,-28.925062129890634,-2.438452160024913,0.4866053967524118,-1.2963533115955725,0.09841587178376338,-1.1359798451189353,-0.3641689863110566,,,none
1.0936000000000021,40.40884305788459,-60.5972858489141,-35.2952969680152,-0.9057588150922018,0.7401477786077205,-3.924036860925028,0.1905969371111018,-0.7299569248252167,-0.3768791837491586,,,none
1.1030990000000003,45.71039783391886,-61.41801094070193,-40.502254018868115,-1.4153255650363796,0.9954432111112205,-3.3885901802106013,0.30514318142134983,-0.4453983611596679,-0.1210618512698967,,,none
1.1150729999999989,49.32696118350146,-61.37739978817631,-43.95035679074318,-0.2412344787683188,0.22767938161398765,-2.408708968122308,0.26205978844173294,-0.22696533664632482,-0.05004751267716921,,,none
1.122211,51.36020698565221,-60.85560026275128,-45.35873059208215,-0.45113050328722026,-0.06770201331396938,-0.4620737293256742,0.21326302743101413,-0.06397715226031622,0.08402627970345868,,,none
1.1317480000000018,51.92219463775156,-60.68498242704674,-46.20218814698212,1.2951374250457384,-0.8549612782951873,0.4993531120509644,0.06278954974052778,-0.015581357938241053,-0.06051303436354172,,,none
1.1412499999999994,54.32898263281031,-61.74571811168639,-48.4798729367745,1.4319573087520054,-0.7529508581719875,1.3131505849306673,0.0009247393593446077,-0.3145235657356482,-0.02403455012383746,,,none
1.1507600000000018,59.865532327316714,-63.96064982696497,-54.41378503439583,0.7656228912969615,-0.9621374834737072,1.3057659342671855,-0.0313375468992543,-0.6715425395484834,-0.20127378923004216,,,none
1.169596000000002,80.77327573916934,-67.59544803881494,-75.36075854071652,-1.456410966841259,0.36185606470154696,-1.2782266564106903,0.0638715947342928,-0.9700952288979229,-0.24041803368111245,,,none
1.1791769999999993,91.77039785751006,-67.52193424786738,-87.10121596837091,0.007602182178826973,0.668392029385373,-2.9352256106347494,0.14305803069050396,-0.8271947253713059,-0.3324198813805544,,,none
1.1887059999999998,100.71771918775129,-66.34771939580115,-95.8058855362434,-0.47080921413637256,1.037001275726607,-3.0684325157345698,0.21687870919253602,-0.7067933706256918,-0.1044779298283553,,,none
1.1982160000000022,104.9085118224976,-64.82520935662416,-99.93600963524011,-0.0168307950706361,0.747730808539507,-2.6999130117887207,0.25430770725740276,-0.38516981024391894,-0.0627464912260017,,,none
1.2173310000000015,107.43564795909866,-62.75207048541471,-101.93905517787391,-0.07451409519634815,-0.35049931201331236,-0.3032766449322283,0.14181894804724993,-0.13849153675770168,0.05682654999310656,,,none
1.2268450000000009,109.96880758614631,-62.13765133280571,-104.75093062929488,0.31386917746871573,-1.0490856158716684,0.8350532432624053,0.06534735581434772,-0.25668747026148075,-0.09771017162733552,,,none
1.2363630000000008,114.5487063390786,-61.577224802961005,-109.53335954168169,-0.20779448754435195,-0.9372714919976156,0.9996136903128934,-0.020479434324628395,-0.4462159283307787,-0.13995453611428146,,,none
1.2458559999999999,120.85377410820257,-60.46754401617703,-116.17319399112357,-0.20516682704574526,-0.6796865119929084,0.39287779413610346,-0.03297305704799661,-0.649497261166353,-0.22469244597399524,,,none
1.2551939999999995,127.99928941782534,-58.32519267031757,-123.76373279426481,-0.644825496461595,0.05892743968423438,-0.8683631420104595,0.007291272294262415,-0.8445540937135235,-0.2876171251504164,,,none
1.2647879999999994,133.6594073663264,-55.32263679358351,-130.13132655617682,-0.2457919467667699,0.5390586673957319,-1.9249517428280507,0.10726928063165196,-0.8564691806740873,-0.32566250729691754,,,none
1.274288000000002,137.18598131170188,-52.27731711143097,-133.90815380501982,0.4993198383107581,0.8985792205197507,-2.4570621796066603,0.17366657791038415,-0.7177815148637583,-0.1860769874824814,,,none
1.2862539999999996,139.0389765745254,-49.592871207349475,-135.5226617695828,0.5650799124664303,0.9896645122923149,-2.554073698951402,0.21739752074872565,-0.5442728832812622,-0.03509924872939748,,,none
1.2934079999999994,137.81673672278964,-48.056943044354135,-134.9818313119915,0.4545398303901274,1.0308266160014385,2.7844244966136555,0.33083158632137594,-0.10523394062274079,-0.058609143351031935,,,none
1.3029189999999993,107.87217613650398,-54.68079149562673,-114.92714236654766,-4.441090367370046,0.559858342077513,6.595905590929042,1.0871377139429848,3.78229763900506,-0.6433649861752915,,,none
1.3124380000000002,86.48289026615164,-54.22028821602996,-102.88096057252069,6.826240503207778,-0.33743539816533735,3.0714638736682103,0.8936407430117185,2.3163154998279505,-1.0437615880954245,,,none
1.321940999999999,99.55745455802895,-45.59663938519721,-124.10412740821361,2.477679472891292,-6.3060864248690995,5.846376932982374,0.9105852364210294,-2.2311183203808644,-2.2931887194153404,,,none
1.331272000000002,105.18042781430763,-37.006228589125314,-135.61094299924818,-5.752959699793489,5.149366027355763,-1.704491681249951,0.7821554494534532,-1.750187025724413,-1.6189872397274812,,,none
1.3408119999999997,108.32592217386313,-33.31741363801069,-140.39527909403458,4.658951417938468,-2.632913198020019,-4.36986508413418,0.11472051951963896,-0.892956993175912,-0.6808621295937333,,,none
1.3528240000000018,115.65623226699283,-35.00998970230253,-145.0262666648714,3.416973354664427,5.391563998475075,-5.888096224276951,-1.1700746740619548,-0.4686092320307414,-0.14571151134333496,,,none
1.3598859999999995,112.77710428629132,-42.587108484157746,-143.27837814097106,1.9014379293532806,0.3951934172075203,-4.44241424298339,-0.5238344986768673,1.4926919007048942,-0.012035535857765978,,,none
1.3693160000000013,104.47374806360777,-52.1185680183222,-129.41243423716654,0.513928015273074,2.2292481796298573,-0.5380565312059442,-0.4994169325081182,2.1572690779048704,1.543350120703774,,,none
1.3790119999999995,95.44962101374236,-58.030476992339274,-118.15163744328423,-1.9141894580935346,-2.3623667107836406,1.704356720934641,-0.4061990624803314,1.5161191926011084,0.769042133955157,,,none
1.3885150000000017,99.59403605742659,-61.1396316380973,-117.10048561186476,0.2433588100520317,-3.244302733912789,6.341476116440234,-0.7462237859591778,-0.08370532832077546,0.9260599715394929,,,none
1.4004960000000004,103.89008186915157,-61.32287067389298,-117.37448724014942,-0.43034124259187284,-2.709803931910355,1.931659823094534,-0.22206039179854953,-0.3512665214037928,0.699114447351731,,,none
1.4073589999999996,117.57944177775103,-58.11997052138627,-128.92183772917036,-2.013015127403284,0.6280186571172685,0.04078173783466785,-0.21946643671503055,-1.5036578897466024,0.03593129648072258,,,none
1.4169470000000004,124.56232997917611,-53.295580856683074,-137.17611073001012,-0.680284048282765,0.7073551958835148,-3.75291357738215,0.16972256836308802,-1.233565994353327,-0.5437740634703961,,,none
1.4263839999999988,123.74189072174593,-51.407570648369706,-136.32711610780646,1.9562957136075043,0.8556486709176293,-1.24200337295123,0.3322642982872569,-0.20632326083404495,0.020647009562182315,,,none
1.435888000000002,112.74546748706425,-53.441881215151255,-127.3529234707003,-3.4828703776322736,0.810198708307607,-0.9141338022828946,0.5937654028619923,1.2692902905598886,0.07221957708583082,,,none
1.4455799999999996,98.1491403762149,-56.11128435655391,-115.15826942708401,-0.11368595811876564,-1.6375809351204824,0.8683373369128464,0.42286936209020703,1.7128485527551771,0.09496882463042688,,,none
1.455083000000002,94.45172119821754,-57.92234205737877,-113.580002253087,3.0664976560329085,-1.6295728282882027,2.43201234596735,-0.1634634629128281,0.5167632480561228,-0.286137916596534,,,none
1.4646030000000003,96.43623016364961,-58.86418398807569,-118.72573091614832,-3.675704990782321,-1.5200747771313652,3.2082676345772874,-0.2609960999408238,-0.10399031753842988,-0.70958739095338,,,none
1.4739320000000014,96.52633819682589,-59.75128070513253,-118.42118855909645,2.0335655564289943,-0.5213568072518421,0.19890326222642843,-0.16041843506730827,0.07682186281459402,0.07029360875353013,,,none
1.4834519999999998,99.06138511721582,-59.76673865213921,-121.78786312957773,-0.5113221985319164,1.955110971110138,-1.6194654817979959,-0.1307665722457361,-0.21963445982358404,-0.2481012399212737,,,none
1.4930190000000003,104.03507902941749,-58.67384568342829,-128.58903800155366,1.869277459000736,0.4824478971578223,-3.397724951246219,-0.11428203186030765,-0.5425171312318039,-0.5329341805668142,,,none
1.5025319999999986,108.49719126222114,-57.63750186920291,-131.7674685974842,-0.24834306187221172,2.115831267522925,-2.6866953378886644,-0.14527045957526594,-0.49394423935572424,0.10664015814326974,,,none
1.5120579999999997,104.40190963446237,-57.86460911786046,-126.29212481690904,0.3070421682919394,1.3040498753423084,-3.2289535622559096,0.24017890832568117,0.3684258828768799,0.40264881646650896,,,none
1.5215619999999994,98.90325890265899,-58.25274730216769,-118.82709086510282,0.7123286495454464,0.21033038811137825,-2.1741337101666365,0.2483053089570649,0.5323945114620936,0.5749702986645283,,,none
1.531136,96.41661087119172,-58.62104562801501,-114.31894493870868,-0.9187206939568244,-0.276084868127724,-0.22900344578171639,0.050960178606757243,0.2659717454597314,0.5059724170693736,,,none
1.5406790000000008,94.07202718584217,-59.46649781151434,-110.6976063677517,-3.2676224348992053,-0.6860593485499404,2.3682286048603407,-0.06365007859353371,0.2879014957261413,0.3445038116764459,,,none
1.5501910000000017,84.16554112322657,-60.67345091813743,-100.86149486372894,-2.047972017735457,-3.097787981722469,5.831397973070953,0.03827947957741666,1.016868572679938,0.2751867770847871,,,none
1.559702999999999,74.47733409339722,-61.69325906768087,-91.89157263793933,2.7277176826166882,-3.029604640808698,3.361731167793196,-0.09723254085363466,0.9510360383152365,0.1258470845867912,,,none
1.5787350000000018,87.02071553674115,-64.13131659275788,-108.94202246023248,-2.530920148309569,0.4779072317508432,0.6710057212408629,-0.24337964446761354,-0.6023042382333818,-0.5480533088516295,,,none
1.5880639999999993,87.17574533146713,-63.52479414433321,-109.92074639517664,-0.8850747375872484,1.5556173299419016,-0.806422421813238,0.11005614724726803,-0.05313777875553618,-0.2029727600917764,,,none
1.607165000000002,85.81080781053736,-62.63780898870806,-110.96324317271487,0.42754432307527274,0.9953480914056305,-2.747093337495161,-0.044114531441034346,-0.16182265700775808,-0.14172576055829755,,,none
1.6165860000000016,85.5608966617409,-63.299056998578,-110.4477209190046,-0.5498936047259572,1.2314918841259768,-1.7488781324651217,-0.11583874006147324,0.06803444924193407,0.04914137838281895,,,none
1.626173999999999,77.83435807594186,-64.28005970833678,-102.23488564774817,-0.15969399105235776,0.09132641730258793,-1.1382616177872784,0.004387331552873282,0.7103714219314813,0.2669809973208405,,,none
1.6356050000000018,68.98143110549219,-65.175210207367,-91.51784940942827,0.5785751743021827,-0.15169621635161573,-0.7974585549473417,-0.08615808903778266,0.7721691539314111,0.5643198868033372,,,none
1.6452950000000008,65.3178256699237,-66.71472786654556,-85.98523146362746,0.5967799587214261,-0.6885774273133407,0.3553865272258655,-0.31441185940809857,0.29231626027940627,0.4492806829409653,,,none
1.654827000000001,64.43387568394719,-68.4530150497023,-83.1807588606648,-0.255465402481143,-0.744529819831528,1.053244898908621,-0.3528846375183183,0.034313799290054424,0.3978419979175205,,,none
1.6667720000000017,62.196039103446964,-69.24457679905258,-79.02915786720318,-2.5877185461601946,0.7158514387784715,1.2685284726953299,-0.18156006518803963,0.13519362035901894,0.4133186068363285,,,none
1.6833500000000008,50.77977222687105,-66.18030921898358,-67.58933122204527,1.8690102193194653,-1.2721805231553842,0.9326253311353864,0.2970848906228479,0.6147087926437835,0.15194140676776863,,,none
1.692848999999999,51.29990638779527,-65.1254283606755,-68.48317052248349,0.450687247597027,-0.6840800890049139,0.45606325772521217,0.21191827502773533,0.03932928999121863,-0.09954979885626607,,,none
1.7021930000000012,56.57770831873382,-65.67494811366625,-74.85243421543849,0.3667860781346411,-0.38897339520205654,-0.9011105587629966,0.03453983509030059,-0.45195391930622775,-0.34442554726652913,,,none
1.7116480000000003,59.587397195081266,-65.73343282362833,-78.31406925388262,-1.9016644955631525,0.4999550164463131,-0.48922952341508175,0.04650994309108708,-0.24377365673671905,-0.18011509965481395,,,none
1.7211929999999995,54.973680498361475,-64.64932437325237,-74.17331452521262,-1.0549187727735392,0.44713332204169626,-1.225273112452122,0.11815271862547054,0.42807462243062705,-0.03125878526385904,,,none
1.7307960000000016,48.30613266311022,-63.60835645553456,-67.86942243274191,0.5731928674069222,-0.14838751664969535,-1.4853532573277537,0.007338603055455818,0.6182565001791813,0.05615024987362105,,,none
1.740393000000001,43.466497145681416,-63.668751411844546,-62.99605800982538,-0.014623763812726424,-0.015525121711716456,-0.7713480194846923,-0.18981241276774397,0.38617847287744894,0.1073948216965023,,,none
1.749917,39.03966396103681,-63.95373142604154,-58.21170887234763,0.0730826482951254,-0.1329701319955187,0.026651854070535,-0.24162730478970804,0.31272976138675224,0.1624650499441291,,,none
1.7594309999999993,33.969997727572206,-63.137808031775016,-52.64458346185553,-0.2922836694793143,0.08151361652667767,0.12264350070385409,-0.12209866905551406,0.4648503130258319,0.20570999969233106,,,none
1.768937000000001,30.454957958881256,-61.88416376735575,-48.85304344379702,-1.1435729756808966,0.27968292829373864,0.5145739536101623,-0.011206278473754926,0.41027471125154363,0.13472199281203584,,,none
1.7784370000000003,29.220017603780004,-60.60986628127829,-47.299889753910286,-0.3355972008974903,-0.4131824541639421,1.37110249772187,0.11021468827930532,0.259027442726378,0.08041307041801131,,,none
1.7879530000000017,28.374805576248598,-58.18235793310484,-45.96035326482569,0.7956945320945729,-0.6835596698494935,0.861602666903976,0.29388581437495986,0.39660807053761793,0.10642648290964785,,,none
1.7974780000000017,28.187680800868705,-56.40499971271868,-45.76676240919497,0.7859926962075785,-0.621490003383676,-0.07207115459951215,0.2411132920089612,0.26252821737296106,-0.009808712750299934,,,none
1.8069990000000011,29.441339629969658,-56.78991021281211,-47.25371825090169,0.18124644219632102,-0.5488857918745855,-0.19392900304400046,0.0393788672999544,-0.15323704487402012,-0.11743931976927038,,,none
1.8164909999999992,30.478668885219676,-57.407352755283945,-48.04672317584815,-1.4425743021855646,-0.11328593590021178,0.665814769116113,-0.015112336854184028,-0.16667970505516208,-0.019659791031565316,,,none
1.825994999999999,28.821758889295428,-56.402748691157804,-46.0227212639055,-0.6595703028194831,0.01625890222279642,-0.5008022761658999,0.02345517570504434,0.26965555207813935,0.103856548019469,,,none
1.835332000000001,26.110349167246973,-54.975938993467985,-42.98752867006738,-0.35574807900546285,0.03892826330342413,-1.1890604601770998,-0.018285170753751436,0.4181784192930099,0.14445118496704829,,,none
1.8474070000000005,24.107994888032586,-54.31848049765235,-40.50099216127022,-0.19583480369380493,0.09213531381596164,-1.1291797487009871,-0.08563399360917415,0.25258007864174326,0.15241596830790752,,,none
1.854578,22.27597935873372,-53.556086149503734,-38.29162264501699,-0.6605814444990515,0.09997191572353427,-0.16405289557684113,-0.07018852325688765,0.2549344664079124,0.12702689965815342,,,none
1.8640830000000008,20.242051044283688,-51.48260993103365,-35.94217091085216,-0.5097390365931549,-0.029331918228173656,-0.04189273586660511,0.05251297958490804,0.4805849498206233,0.12870150345830472,,,none
1.873552,18.893605243904712,-49.0215146630865,-34.22202362593464,-0.49673000777982595,-0.08097942676186941,0.3604768620618605,0.14140734089654292,0.5025989058146914,0.11290453355751862,,,none
1.8830600000000004,18.24815878651709,-47.189322024922525,-33.434084138012544,0.21201844667437741,-0.47223180744207616,0.5384631522745373,0.1321303506066881,0.3529328805145039,0.035313452479886244,,,none
1.892557,17.873600767946527,-45.51659299085192,-32.87834491114464,0.4691925569323349,-0.6122661149342532,0.7643333914272232,0.1394993068661492,0.3088522363599129,0.03167777026493914,,,none
1.9020270000000004,17.31197619198396,-43.93335418829435,-32.233889759403176,0.39548250539272306,-0.5094677310127118,0.3182919773968388,0.1029839352568965,0.3102661419571726,0.03065612625059136,,,none
1.911598999999999,16.906907949309904,-43.29520543776898,-31.682664734203634,0.0751278114777465,-0.4210558484288605,-0.034827077067976754,0.017675122357415415,0.13950398380988416,0.031881283934534085,,,none
1.9210980000000006,16.70697878111872,-43.281130182059,-31.0282973331398,-0.5402358063700738,-0.17313200744505888,0.3274871390287012,-0.023436070323900635,0.017540653813979915,0.07620607175940024,,,none
1.930617999999999,15.993046088665595,-42.62605115919208,-29.88900224009298,-0.5726682989371273,-0.03754778119616574,-0.3065124213942111,-0.023901560134701946,0.1660638495575786,0.10199929215555309,,,none
1.9399110000000022,15.136536097366145,-41.286841159606,-28.544314193128006,-0.7196985395463763,0.10750119481021085,-0.6900726401946,0.019300382410170958,0.29629110673713044,0.13324076683249111,,,none
1.949459000000001,14.501679976096211,-39.93696777659737,-27.47878609901442,-0.6727420689531064,0.16595134127032024,-0.7905206517071736,0.041564857585942576,0.2839551481243268,0.11618686618215777,,,none
1.959182000000002,13.999970382349831,-38.48506868965564,-26.665278833736007,-0.6475949164170537,0.002839108206456353,-0.2736103253224107,0.06273620608395353,0.29432916648827395,0.07914203176778392,,,none
1.9686820000000012,13.529158001385056,-36.334601288137414,-25.856723282961774,-0.4039567269973775,-0.13372828051369273,0.02688667727949434,0.12299078655254321,0.4193685468700077,0.08447201658721222,,,none
1.9806279999999994,13.016678198258386,-33.834574577617786,-25.041836254389228,-0.2097975943186426,-0.2622695562974261,0.20866527017294473,0.13883868517678108,0.488191456956548,0.08377128899332548,,,none
1.9876649999999998,12.60812908087668,-31.8284310291351,-24.31227091610554,0.12742661847982856,-0.4363102318732629,0.31957482818360133,0.1048836435724501,0.39378211686999265,0.0809286350533616,,,none
1.9971810000000012,12.295186760176446,-30.2692387266281,-23.54182148517246,0.2825990033139295,-0.4873611867505632,0.5571936202261103,0.0772761274250093,0.30719548820998993,0.10180035778376258,,,none
