timestamp,roll,pitch,yaw,acc_x,acc_y,acc_z,gyro_x,gyro_y,gyro_z,acc_mag,gyro_mag,markers
0.0,-61.86055000708105,55.38862373498286,-158.82074830757298,0.06977034540743307,0.1792404982133528,-0.08959137186303183,0.0,0.0,0.0,,,none
0.009546999999997752,-62.29551894766298,55.53963010727925,-159.1784930087628,0.06858425199379144,0.1913972994932589,-0.09068200614008633,0.0,0.0,0.0,,,none
0.019028999999996188,-62.62101538380297,55.75638564254309,-159.39896630405784,0.09269739604282513,0.20315925699856938,-0.05990195090788783,0.0,0.0,0.0,,,none
0.03808699999999732,-63.06490024681703,56.29755709659418,-159.59699959657092,0.17471719683689343,0.20739103371921921,0.06234617083925243,0.0,0.0,0.0,,,none
0.04754199999999997,-63.12235940970975,56.30280305864951,-159.5652949443685,0.2016338845204235,0.20595191716580769,0.09767873258694978,0.0,0.0,0.0,,,none
0.05705199999999877,-63.30547709678948,56.27621478566896,-159.6566399909991,0.20341471944328787,0.1992431192735705,0.09407004789059488,0.0,0.0,0.0,,,none
0.06661799999999829,-63.78887837412828,56.470713825721276,-160.01761687632325,0.18049959702545978,0.18137179297144745,0.05567509941990729,0.0,0.0,0.0,,,none
0.07612999999999914,-64.30754184265756,56.644420351338304,-160.41330427728255,0.1510960677248663,0.16488545806943103,-0.0019438436023436713,0.0,0.0,0.0,,,none
0.08565099999999859,-64.7835882241123,56.81978292381946,-160.76023337341923,0.1256832808493401,0.15367874101530363,-0.0550805634195974,0.0,0.0,0.0,,,none
0.09510699999999872,-65.12261897484214,57.02689444054898,-160.9730923748587,0.11096948627520346,0.1395825561646883,-0.09757856965742545,0.0,0.0,0.0,,,none
0.10462100000000163,-65.2739471398814,57.28636966453809,-161.00373014853093,0.1395208597615673,0.1365504087594196,-0.07597842652492613,0.0,0.0,0.0,,,none
0.11416100000000284,-65.26203558679532,57.59223354682661,-160.8839660673816,0.1708082814184036,0.13574910705842744,-0.04111450554858928,0.0,0.0,0.0,,,none
0.12364099999999922,-65.15514706281843,57.92460523139349,-160.7003877866621,0.20848450753697848,0.1343735494274657,0.0032525522816710026,0.0,0.0,0.0,,,none
0.1331039999999959,-65.06310443371628,58.24374399047383,-160.56491456313236,0.23234964918441195,0.1399489515609869,0.043061330923513726,0.0,0.0,0.0,,,none
0.1426790000000011,-65.02844303228875,58.509755153371614,-160.4456940376865,0.23505563395388343,0.1381672068510568,0.05950693140280363,0.0,0.0,0.0,,,none
0.15221400000000074,-65.07246503114476,58.69498359862308,-160.43034572591083,0.20821466904342253,0.13050681469526865,0.05065533117750608,0.0,0.0,0.0,,,none
0.16171899999999795,-65.17664301641926,58.80911649835159,-160.57672319369965,0.16999941424252463,0.12761367224243375,0.03013382526145056,0.0,0.0,0.0,,,none
0.17122799999999927,-65.2441842971667,58.86946076886063,-160.67699750376187,0.12578890734005196,0.10946903502337936,0.011264579419513783,0.0,0.0,0.0,,,none
0.18069799999999958,-65.23177192207604,58.929351248616925,-160.69374524598268,0.09580106700448932,0.0969437024489878,0.005279123142156123,0.0,0.0,0.0,,,none
0.19022600000000267,-65.13660639607077,59.042999990330145,-160.607101301605,0.08941851286483588,0.09360125406543507,0.021634927847857643,0.0,0.0,0.0,,,none
0.19973099999999988,-64.97688952965431,59.22986766284611,-160.41771361723727,0.10109218067620238,0.09518152990345059,0.05166361933272431,0.0,0.0,0.0,,,none
0.2092359999999971,-64.80671912749692,59.48172569140857,-160.17654390257474,0.12105245690626065,0.1007803384057807,0.08021263953503355,0.0,0.0,0.0,,,none
0.21872899999999618,-64.6004473519468,59.597557379779495,-159.92725168920535,0.14132726894438347,0.10935219224106145,0.09815962404580153,0.0,0.0,0.0,,,none
0.2282289999999989,-64.51146953709781,59.69029488104794,-159.81951587059345,0.15147849086717155,0.11649674357815297,0.09202023033319018,0.0,0.0,0.0,,,none
0.2377699999999976,-64.65851734110593,59.90993948047094,-159.92693656143013,0.1411205924557599,0.11368234831587415,0.06383160357384526,0.0,0.0,0.0,,,none
0.2472750000000019,-64.89576511443993,60.05896619745194,-160.12247006246187,0.11725048183042351,0.1058035102527079,0.021796624426798306,0.0,0.0,0.0,,,none
0.25677900000000164,-65.15684337432815,60.155210609339385,-160.34223223186692,0.09258009434049098,0.09765378430994329,-0.019046068813802604,0.0,0.0,0.0,,,none
0.26634200000000163,-65.38035903812215,60.23757134179353,-160.51860012274454,0.07187313157292931,0.09151410738434329,-0.0561990260958313,0.0,0.0,0.0,,,none
0.27580799999999783,-65.5202932232606,60.347468238863904,-160.6048131241864,0.07390063514279448,0.09392287221988692,-0.05743984184631961,0.0,0.0,0.0,,,none
0.28530800000000056,-65.55716721446174,60.50964191379813,-160.58530291667313,0.0797223458351939,0.09506776775928241,-0.060395123058971885,0.0,0.0,0.0,,,none
0.2948689999999985,-65.51957090310235,60.715465842314806,-160.49859409067827,0.11109348413260908,0.09991802871880646,-0.012158566190310098,0.0,0.0,0.0,,,none
0.3043819999999968,-65.47608096567235,60.93665702118145,-160.41974231071686,0.12931772943369074,0.1052818583410082,0.022559109710113878,0.0,0.0,0.0,,,none
0.3138879999999986,-65.47988801198969,61.13554038901938,-160.4023160492754,0.13354071752236438,0.1050784973883182,0.042658548476133075,0.0,0.0,0.0,,,none
0.32340399999999647,-65.5672240288283,61.28502811497095,-160.4789152224546,0.11724673693552885,0.09737110602164596,0.037537807600532894,0.0,0.0,0.0,,,none
0.3329140000000024,-65.77620532817805,61.390338114862935,-160.67102131884133,0.08934559091358785,0.09431102594760556,0.008132247158727028,0.0,0.0,0.0,,,none
0.34236699999999587,-66.07870405929671,61.469851930770425,-160.9353756792317,0.054707774212757,0.0896305700441754,-0.0440256551120706,0.0,0.0,0.0,,,none
0.35193399999999997,-66.40201718462455,61.548333778766164,-161.18698311896824,0.041880200034417996,0.09182893420913349,-0.07150223615258249,0.0,0.0,0.0,,,none
0.3614340000000027,-66.6832976747868,61.653265094262686,-161.3003062749809,0.03928731729269129,0.09742293462590344,-0.09930561089824119,0.0,0.0,0.0,,,none
0.370948999999996,-66.8623173686299,61.80140359879865,-161.29158228006332,0.060996028987062106,0.10122929798454375,-0.09877675035358843,0.0,0.0,0.0,,,none
0.38041599999999676,-66.95713314499473,61.98360494319535,-161.18489428880576,0.09766686410039951,0.11410704814623694,-0.06877048114771984,0.0,0.0,0.0,,,none
0.38992600000000266,-66.98086191504301,62.17065995660513,-161.02466890765052,0.1321354515164013,0.11992102733338661,-0.03341219751995939,0.0,0.0,0.0,,,none
0.39949299999999965,-66.98607339204946,62.331396470602606,-160.781253175075,0.157054655930676,0.12462744839602588,0.003559879846317696,0.0,0.0,0.0,,,none
0.40899799999999686,-67.01616798328187,62.452923924645056,-160.51867387198592,0.163517963768078,0.12249170194032827,0.025203474902068358,0.0,0.0,0.0,,,none
0.41850399999999865,-67.0971638082791,62.54364374771566,-160.43093018742962,0.15055096082688876,0.11364121143742366,0.023433822686310047,0.0,0.0,0.0,,,none
0.428013,-67.22951345754407,62.627193753925795,-160.50793186011228,0.12292228494734612,0.10528575584131321,-0.0005767590431007471,0.0,0.0,0.0,,,none
0.4375220000000013,-67.37737396485983,62.73258085075674,-160.63031744810252,0.08511124108836887,0.09442176554526094,-0.05752581992258986,0.0,0.0,0.0,,,none
0.44702900000000056,-67.50169167418433,62.878512073331265,-160.74278407804547,0.07885473489083983,0.09580319150431299,-0.054313305480289405,0.0,0.0,0.0,,,none
0.45641700000000185,-67.55375896124981,63.07117841237596,-160.75816236224642,0.08126666442762467,0.09732376642007368,-0.05526644129832179,0.0,0.0,0.0,,,none
0.46599299999999744,-67.53815737437264,63.2938350629708,-160.69234118126374,0.08299382903619296,0.10549931546102535,-0.05695312592210578,0.0,0.0,0.0,,,none
0.47553700000000276,-67.45393044135639,63.508418224447674,-160.54913783796545,0.11049828102496712,0.1155284722813385,-0.007335548684051932,0.0,0.0,0.0,,,none
0.4850679999999983,-67.3347840104094,63.68118391250632,-160.35987419467682,0.13660867448544808,0.11526129600542205,0.04824334107604945,0.0,0.0,0.0,,,none
0.49453499999999906,-67.13654634794788,63.61636229344157,-160.10515751942245,0.15885011683708225,0.11030900436871778,0.0942570967463746,0.0,0.0,0.0,,,none
0.5039939999999987,-67.05541525740831,63.511829304182896,-159.96551221815307,0.1681313454302498,0.11089677007372169,0.11303058721919398,0.0,0.0,0.0,,,none
0.513503,-67.09194525478587,63.407994812102714,-159.94266146476085,0.166919225894424,0.11076087097098533,0.10717276704793244,0.0,0.0,0.0,,,none
0.5230689999999996,-67.31136761113109,63.53070352369912,-160.10033123019878,0.15355263240494346,0.10859187286653521,0.08175053798429217,0.0,0.0,0.0,,,none
0.5326310000000021,-67.56121841630323,63.71909939772412,-160.2795603206005,0.140440135574539,0.1111042835243295,0.04932870276748548,0.0,0.0,0.0,,,none
0.5420969999999983,-67.78808960479853,63.98181811211621,-160.43991268311203,0.13097378752196429,0.11463190271200505,0.031238645911069413,0.0,0.0,0.0,,,none
0.551643999999996,-67.92096303384821,64.30251296780538,-160.5228913208999,0.13248829369399887,0.10339638251639628,0.03863295707539043,0.0,0.0,0.0,,,none
0.5611680000000021,-67.95418115066691,64.6400910822331,-160.5218055452023,0.13613368098991546,0.08014065718853391,0.07191073869505737,0.0,0.0,0.0,,,none
0.5705609999999979,-67.9398439286993,64.80673388267262,-160.48277746570523,0.1419695342476727,0.06639546685265608,0.10335062635300031,0.0,0.0,0.0,,,none
0.580128000000002,-68.06169559805132,64.94055610367921,-160.59633273187094,0.12462442771287847,0.12308376739092572,0.09139840955093646,0.0,0.0,0.0,,,none
0.5896849999999958,-68.4507309447601,65.13111097302951,-160.98468367190122,0.07246167383391122,-0.0004282685841152616,0.002895406007128293,0.0,0.0,0.0,,,none
0.5991319999999973,-69.40306069539801,65.24060678015668,-161.91936666054337,0.0005036833266724154,-0.020838050142829655,-0.1398338177896831,0.08282931500377075,0.0047182023778316266,-0.0296543807945978,,,none
0.6086549999999988,-70.31025401872783,65.28011891575015,-162.81812370976417,-0.09386908124544309,0.3071293047345809,-0.3875214525929437,0.07482825832900959,0.015505857790677277,-0.023432897514923123,,,none
0.6179449999999989,-71.12358865147108,65.28966189097379,-163.47107998310224,-0.19293668313329276,-0.3890675129593451,-0.7863450633279332,0.06570691550800137,0.017931725158057722,0.008410736693537764,,,none
0.6274629999999988,-72.89880310292214,65.4708475860825,-164.73301576803408,-0.34481622078698293,-0.04311649999623621,-1.192508869699763,0.15232889117094678,0.005698003331147926,0.06522954171482077,,,none
0.6370569999999987,-74.63322473568167,65.781294661124,-165.8694086910017,-0.22570381849166685,-0.030276481832846203,-1.29688840251839,0.15438238543877486,-0.02376667530172546,0.08880796325544235,,,none
0.6465579999999989,-75.18996041589327,66.0336024423638,-165.50688966754524,-0.1285267903178967,-0.07048128822769299,-1.3755788446531751,0.05658233522241938,-0.03770215055658688,0.17434186473710697,,,none
0.6560309999999987,-75.3368801925655,66.2313770124591,-164.44289553108138,-0.07960827943424735,-0.08673187731483628,-1.22341353374287,0.021772434968408097,-0.035158909036562436,0.2399252895122086,,,none
0.6656479999999974,-75.59296783259511,66.38196520133705,-163.65794090631638,0.08508195799212467,0.1316905623950009,-0.8394085405922131,0.02810104524042395,-0.02332563209920934,0.2041063611699927,,,none
0.6748329999999996,-75.566590409841,66.36610159892462,-162.85706672530264,0.35742110054533227,-0.0028228001587645075,-0.635876101739384,-0.0029337441941885553,0.0024355470212565804,0.15550362883807647,,,none
0.684706999999996,-75.98995392817233,66.20764792525377,-162.50109398950113,0.27115951253902826,-0.006497003140085119,-0.6870503606497512,0.023102337255774638,0.04043961218930256,0.14887666696906923,,,none
0.694186000000002,-77.22040022547873,66.09154409399815,-163.33423897858535,0.2088384664139616,0.07566701762587602,-0.8332980232842062,0.08838374103026787,0.05147913490203558,0.05851737811259835,,,none
0.7035470000000004,-78.61797589013679,66.05971680141538,-164.58293066560796,0.14609268072779621,0.021357418333854756,-1.0423756462712996,0.10728330021709434,0.037475756979128284,0.0057813399211680515,,,none
0.7131290000000021,-79.40640287019713,66.13690979467972,-165.28886041197296,-0.08518514125528921,0.11332751932340453,-1.3186167759468554,0.06577360816898406,0.0016926135594290898,0.002989813121027165,,,none
0.7321060000000017,-79.18749092774273,66.76191232200047,-165.418737913559,-0.0674006852510928,0.08367120879565786,-1.2301337108230022,-0.010143212070715063,-0.07852346229371823,-0.03369468290288085,,,none
0.7417239999999978,-77.9815516989308,67.0780357272676,-164.42108302884708,0.005759327384711153,0.001887114442754513,-0.9850945557933034,-0.07491561047303215,-0.08573881406756031,-0.022382275041515017,,,none
0.7512290000000021,-76.66957639055143,67.25219850542423,-163.3217107334152,0.08785226615024076,-0.09119957205509553,-0.7764187811599556,-0.08823009650781904,-0.06181202496588105,-0.021990569322041107,,,none
0.7607870000000005,-76.18155271437043,67.275587288415,-162.90210533134677,0.10660528333393195,-0.047157748197252505,-0.5940550207693835,0.0,0.0,0.0,,,none
0.7703089999999975,-76.34842824491507,67.15260874743771,-163.10932576668247,0.06872670889569774,-0.05202683057938062,-0.6194314958025511,0.0,0.0,0.0,,,none
0.7798060000000007,-76.9859654805642,66.96601814321312,-163.73690556330405,-0.06452494165973703,-0.11217981814743586,-0.8561256748126206,0.03700283753989869,0.05001364468421119,-0.017583686811245607,,,none
0.7890900000000016,-78.03774747039452,66.86965059102445,-164.6933813487309,-0.1835002496216388,-0.07189832966608473,-1.0893021117434403,0.07418091265679425,0.04103722629918859,-0.0037523781856048785,,,none
0.798729999999999,-78.90729117654989,66.93646716190462,-165.37466532472328,-0.20253036194154025,-0.016699338646895694,-1.2247990113053815,0.06942742445286863,0.004725532245776555,0.018384885881669623,,,none
0.8082550000000026,-79.06567239208172,67.1575220406476,-165.19095308114018,-0.17204705792120445,-0.011026466640733968,-1.26184019346806,0.02322528056793073,-0.03965953981962179,0.055819814638254465,,,none
0.8177090000000007,-78.71309750358097,67.4913202145885,-164.46255135392448,-0.046071459413081085,-0.03010979711287023,-1.1457351971003544,-0.008734041702900892,-0.07163305463645066,0.07071186275327045,,,none
0.8273670000000024,-78.23985695523483,67.8273992630455,-163.6494214228747,0.11712849839342857,0.013339802321831804,-0.9111317457578927,-0.016115284692171467,-0.07460376988391805,0.06866845509665426,,,none
0.8368690000000001,-77.7634060537672,68.03071496586226,-162.88091938238554,0.21241675287263462,0.034988427605085415,-0.7432405891609226,-0.02257933115059475,-0.04931342646826706,0.05679778437738858,,,none
0.8463879999999975,-77.63552695499887,68.05910802846556,-162.56965000567865,0.2254776436805472,-0.0085489679340039,-0.7313130840697473,0.0,0.0,0.0,,,none
0.8558939999999993,-78.13728665127441,67.96165068955591,-163.0420625887029,0.15127686450859923,0.006556239203184185,-0.8171933090837348,0.0,0.0,0.0,,,none
0.8651830000000018,-78.86086419972517,67.81430948289399,-163.83633059541202,0.028628407681123444,0.01048874943672168,-0.9837007304989032,0.0438418168036133,0.043830683377056076,-0.03092476599655287,,,none
0.874803,-79.3397470600747,67.719978399229,-164.38452197236916,-0.10503867803895085,-0.016747198460579357,-1.1708374350335466,0.029701492226280244,0.028110210742527297,-0.03382588240243346,,,none
0.8844829999999959,-79.4712461464595,67.77785585094463,-164.5578450422126,-0.1670011919822067,-0.02869160008175097,-1.233193649370713,0.0,0.0,0.0,,,none
0.8938399999999973,-79.14399618294456,67.99895440063163,-164.19909443717273,-0.13957748969463024,-0.013277330063577963,-1.1419299707247603,-0.011774685575390242,-0.04928960111587606,-0.01399654394178098,,,none
0.9032539999999969,-78.36035330457459,68.30528105212632,-163.29827575058565,-0.061024237149135956,-0.04322167209514123,-0.9807520376344454,-0.038797312883163806,-0.0752676631648699,0.007617125814121797,,,none
0.9129590000000007,-77.57727324263656,68.60109654573908,-162.47066993408123,0.028675538544348254,-0.06157483657589533,-0.8155655422588217,-0.03759223719779934,-0.07355135771371282,0.01986667054894775,,,none
0.9224260000000015,-77.25601482272384,68.80251895334261,-162.07087765733132,0.09420738772186778,-0.04647033296278897,-0.7010519272485691,-0.009966952531088976,-0.045531536440514164,0.020116910940506473,,,none
0.9319780000000009,-77.43512290450285,68.85497540214494,-162.14592482333975,0.09114062178970857,-0.022557905966924377,-0.7269012142394045,0.0,0.0,0.0,,,none
0.9414519999999982,-78.00950423977508,68.78141396755362,-162.60494049122445,0.03312175613680183,-0.035887893221606945,-0.8809172294714577,0.0,0.0,0.0,,,none
0.9508939999999981,-78.79009569036357,68.67038994734676,-163.26697490561207,-0.039208809712923835,-0.015694083000860667,-1.048816598582519,0.04768207323584716,0.037887010222646955,0.013095057488156302,,,none
0.9604069999999965,-79.33391662028656,68.60857780714899,-163.68872871282716,-0.08616027882495221,0.015308188309783012,-1.1540580656179704,0.0,0.0,0.0,,,none
0.9699090000000012,-79.33443839440264,68.65996725249042,-163.3858006142826,-0.08616489153566635,0.010788042566801673,-1.1709377959818748,0.0,0.0,0.0,,,none
0.9793480000000017,-78.89569489680186,68.84174563762853,-162.6650707844582,-0.06373427370444869,0.1291750945702661,-1.0599176950859917,-0.01974762118137378,-0.04413801482956474,0.024672031721072334,,,none
0.9890419999999978,-69.4915628635081,68.28938477408181,-155.27934336588214,-2.308717219010262,6.298665920455066,4.350535491230407,-0.6808365550825741,-0.14523370630294027,-0.3259921811739143,,,none
0.9985470000000021,-43.70362786599843,60.22854399441592,-140.9332580111612,4.794142696137462,-3.0496613660500707,6.994083637261277,-2.7287726653725723,0.14665993926008597,-1.9127045885461338,,,none
1.007877999999998,-59.81125599324581,58.78949728136914,-164.92835395653583,1.8051548253409182,4.639650760956082,0.16743146092590255,1.321302204190667,1.0039031533639455,-2.1116382516565255,,,none
1.017398,-63.920576421087965,56.643390736846605,-178.23466367293236,-7.026395650624649,-1.6718762770944255,-3.718408573595631,0.3704009928958912,0.49114454107291705,-2.0527655410581724,,,none
1.026964999999997,-76.91832188000362,64.08459672818124,162.63460353244693,-1.878660868313439,-1.975857657635088,-9.303534916345818,1.0809431000428897,-1.6385570883771836,-1.6607231818491732,,,none
1.036488999999996,-69.06303183060643,73.6623483405837,170.7241856257347,2.709774189339241,4.2328827677038925,-9.11179098031075,-0.9927160694973312,-1.7314403560662763,0.14707231266594722,,,none
1.0483800000000016,-10.643760700309185,69.34598874777848,-134.64475937537367,-4.918411348236317,-4.809659800043421,-3.5859674660613847,-3.625765125671073,-0.384296700508464,-0.2532691687857047,,,none
1.0554210000000026,12.769505736734695,53.90747418856437,-112.83804071221101,-2.6174547462137374,-7.5191174342087095,0.8851001464237015,-3.7549298001308715,-0.16666607904695704,0.17346838158138453,,,none
1.0675889999999981,14.590766769592516,47.59459813360359,-103.03641698299845,4.588878443478521,3.55787920801356,5.325820246376872,-1.27438879008952,0.17211937525361243,1.7190506230560727,,,none
1.074624,7.113927691979357,44.71926085913946,-101.42133881903969,2.5465200301813993,2.722272957706154,6.556419695827844,-0.3385111279995443,1.1368246268126516,1.4790945498076693,,,none
1.0839580000000026,0.1364260599214551,46.9974585666349,-103.02366218993588,1.3240091394679419,2.8618263037142166,-2.4315550846544407,0.6511424989730773,0.8543588690940963,0.6820280585508031,,,none
1.0959459999999979,-3.231178553696624,52.55932054610906,-104.65234084745484,-0.4602306065558822,-2.753972201606268,-0.5407165777103781,1.1850852150697975,0.15664036654178373,0.18921585735099258,,,none
1.1030540000000002,-4.459299273141719,54.83651820034643,-104.77561496709878,-0.3880214814036766,-2.624790143897643,-8.27872812868541,0.47796429826076686,0.02501139196043641,0.17348994811173848,,,none
1.1125720000000001,-2.6146870477271964,53.1038076192477,-100.86532216958943,0.39747238348690844,-3.3031041949696744,-7.401639628269441,-0.3864799487029638,-0.13484569955059605,0.4841348974275843,,,none
1.12209,-1.1208947386075538,45.125272944233586,-95.74392484594465,0.2033055013744149,-3.22979336923906,-3.492985352654173,-1.6092593577867775,0.03688046600789753,0.7974492850014132,,,none
1.131656999999997,1.815457905776941,33.7160869666874,-92.63469313252465,0.49342846884822245,-1.8913274426971824,0.49296983922248805,-2.3111693549130066,-0.285151040433873,0.2632265432591395,,,none
1.1412059999999968,4.219982006109442,26.115906102070294,-91.2560717610989,1.4940164247686214,1.5400875322366365,5.088729790044204,-1.5347683145962845,-0.36569293951966625,0.035326102961541095,,,none
1.1505459999999985,4.909744411446211,21.760377730865226,-92.118426444047,1.219689464582406,7.685180750781355,-0.052840367505905615,-0.8754102890436303,-0.10052728323632554,-0.22861460282601098,,,none
1.160218999999998,5.3964557993189795,17.42065051692546,-94.18787575950653,0.374560807911382,2.56633909224947,2.132431922669374,-0.872689856135878,-0.04390250953771106,-0.44681086471890297,,,none
1.172114999999998,6.602891457977752,19.951331855421294,-95.11056672744161,-0.4273371592863816,0.6509268570464788,-1.7787439933333544,0.48646934918287776,-0.2691610593859126,-0.26210186327729745,,,none
1.1790620000000018,9.905831846042908,24.044465273557947,-94.24114538320582,-0.3605456527315516,-2.4735407279895205,-1.6526047546479328,0.7665690870874782,-0.6780352219086446,-0.07381587886136178,,,none
1.1886590000000012,14.7516173947025,22.443667853638292,-91.43629831436122,0.12223618089122981,-4.327349902628745,-6.373132480182889,-0.3640651713599396,-0.8745088114689987,0.17835084560037887,,,none
1.198084999999999,19.622007494546203,16.30510547564876,-87.13950758671781,0.11480889624746364,-7.196932154621806,0.20157566208208608,-1.2168594158409054,-0.9356120699449785,0.5353704890885649,,,none
1.207777,21.876751529844324,9.733700657805223,-83.04689697849292,-1.3796560557119877,-1.8817116464454737,2.2693578611549476,-1.273294190092639,-0.5510788280731534,0.7166668015986014,,,none
1.2172780000000003,21.364684451983372,1.254956856253942,-81.89087562155726,1.0305153876924322,3.6410963622578363,8.245025631386655,-1.6965813370437124,-0.11851613759205486,0.27750392524423073,,,none
1.226618000000002,11.180125763177394,-4.349780428651904,-83.83294963655499,1.1321489991772904,7.267053398431319,-3.707727812389498,-1.3570678150267343,1.8894152029939604,-0.35856760701576246,,,none
1.2385889999999975,2.7765755441616315,-7.365253871737292,-87.57029293137597,2.5746501555892958,6.368415732760034,0.9029684216262777,-0.7210851550303038,1.626897002113557,-0.8407968715698697,,,none
1.245716999999999,-5.985801965016513,-6.638584698679878,-89.3291755283576,-1.9580011068844057,1.77328492022546,-4.26586060019783,0.10249712576635618,1.7444863016497814,-0.5070314409160656,,,none
1.255155000000002,-5.569773300888904,-3.121516095598396,-88.70800987064108,2.0810937936803997,-0.09134268674322983,-0.2818677628744812,0.7054188804899528,-0.07183004641539784,0.16048592988399646,,,none
1.2646489999999986,-9.17133357860258,-0.7353944922084127,-87.52777022394804,2.096175116429991,-3.0293582748237546,0.0006383194421967405,0.4547765964846286,0.7353769830795706,0.24638262200311697,,,none
1.2741690000000006,-12.52695850888693,-1.0931203347615268,-85.5424052109089,-0.5360867169048223,-6.38420739124095,-4.634488557253458,-0.11096244800040048,0.6664493280464513,0.42517154837062243,,,none
1.2861440000000002,-12.758729982343363,-3.45389140923531,-84.22629312377744,1.969970052566846,-2.80540712638642,-0.0976415122396804,-0.47493428776154584,0.004580504547340275,0.2877218806660235,,,none
1.2932769999999962,-12.895259841226355,-9.808252965583074,-83.97599072800007,-0.02034984133208132,-1.6069776024529328,-2.071759794256789,-1.2683884978003959,-0.1029978950448484,0.06016378296665252,,,none
1.3028839999999988,-11.176779825679345,-16.98763035971061,-84.6099277000787,1.370033360461386,2.3025306414414612,1.7488821819203217,-1.3967841155958907,-0.4765941807889189,-0.05341855761259167,,,none
1.3122819999999962,-9.449291248618225,-21.87050811741395,-86.51648907127618,-0.9630955889311631,3.362125802735616,-3.0695847342979445,-0.9490166661253068,-0.40190934995770117,-0.28994882726145377,,,none
1.3217239999999961,-6.265513981691274,-24.819113055633988,-88.54854996420198,-0.06314292961233291,4.318555447783957,-1.5330227390366988,-0.563565195989535,-0.6110295626576748,-0.18791915050025104,,,none
1.331234000000002,-5.225194650065266,-25.411213842022473,-89.44472997882276,-1.2490940365452838,1.496867325321972,-1.1963452083401653,-0.11505299490846428,-0.19075193208146043,-0.11195873089465148,,,none
1.3433869999999999,-4.4593563851280935,-23.264178084347968,-88.99579866144312,-0.40236934090074694,0.024491467478698545,-0.5492031520248933,0.43167741476238386,-0.13405911096451462,0.16379274582974832,,,none
1.3504289999999983,-5.476597146973418,-21.43485011968491,-87.2273309732643,-0.17120969542224182,-1.1487514688113283,2.687166591900337,0.3601186324850062,0.19989026390407091,0.30595512670003616,,,none
1.3599449999999962,-7.143431731037201,-21.692888929909692,-84.44106752913957,0.6277351747031809,-0.6599503564277589,7.461420967939695,-0.07359620060681385,0.30593502462311456,0.4712191628744641,,,none
1.369450999999998,-8.944351368635507,-21.22835351327587,-81.97811910285819,1.2560229746466818,-3.21374204458421,2.6976415313349205,0.05327244970803524,0.3441440651039018,0.40114815997207426,,,none
1.378776000000002,-11.144494223627648,-20.429104094466936,-81.26387770507087,0.10249168993582357,-1.977496026044722,-1.8105128171383456,0.0989860937793016,0.4304878403589877,0.022915006960725456,,,none
1.3883670000000023,-11.647622175675517,-24.35402563842235,-81.77110681054545,0.22369840042939154,-0.48069014624737577,-1.5389368855212817,-0.7910201315234977,-0.02291863111822713,-0.11499813150394715,,,none
1.3980049999999977,-11.667542893948779,-30.007484895951475,-83.47771290237928,0.9948368092753214,1.9395814116905599,0.48170394204848527,-1.1230734110120797,-0.14179337672906164,-0.34325533287250704,,,none
1.4074030000000022,-11.612957033618846,-32.785416049531655,-86.58741523504254,-0.46807178883679984,1.794850218006821,-2.500439319773488,-0.5533257910436189,-0.05791867605112272,-0.6360201762701521,,,none
1.4168979999999962,-10.621940839387255,-33.31206848451633,-89.1218910238722,-0.4418239604919326,2.2803701771977356,-2.5690223505181966,-0.09904537239501505,-0.17021230713477684,-0.4131362601287446,,,none
1.4264209999999977,-10.287827738493998,-33.33833705252175,-89.48537712707108,-0.46882844918138245,1.3579322511277123,-1.839262696136863,-0.00457983516186252,-0.0559549255008529,-0.03602376537273446,,,none
1.436039000000001,-10.661222085118341,-32.02319875685594,-88.3182546411033,0.3738409326335967,0.41337357025584637,-0.015014450971725364,0.26206603857861466,0.06796067183591238,0.19330241048771357,,,none
1.4453540000000018,-12.035912259311498,-29.054800759983944,-86.72218663985807,-0.14076854668360755,-1.4154822931404398,-0.4076525429144924,0.583737629209727,0.2620419571115121,0.2006795620311271,,,none
1.4548660000000027,-12.452298102668554,-26.9870961351339,-84.86783383971861,0.49259130274567275,-1.84414409509974,-0.2552573485987591,0.4076088784388052,0.10333310355665427,0.3559838374020283,,,none
1.4645530000000022,-12.799630514479158,-27.967124552129995,-83.2588461819275,0.8248590919342608,-0.3313528803423705,4.114686309296297,-0.20152493307524663,0.04123396140901221,0.3086076067690686,,,none
1.4740789999999961,-11.717626506822247,-29.384348306233697,-82.78057086127014,0.7843021765578443,-1.4921393286483762,3.7717598974726214,-0.2586040447723549,-0.2230888376188638,0.20530096637250217,,,none
1.4833989999999986,-9.680862952590656,-29.60976504571002,-83.80010284616301,0.3125098651019232,-1.6197555726241406,-0.5723298662915677,-0.003203301839032832,-0.3577797562153459,-0.01262134980045819,,,none
1.4928629999999998,-8.233675497971896,-32.48289672441932,-85.29708019931425,-0.11888817281372532,-0.47591618955126797,-0.9946073262434258,-0.5487601434188949,-0.30231615185143723,-0.1718696347276346,,,none
1.5024189999999962,-6.329222595112427,-37.52567033480573,-86.88855681504201,-0.36828013346122884,0.5727229296290489,-0.7549570356182822,-0.985397451593271,-0.381886750741968,-0.13200479191554246,,,none
1.5119339999999966,-4.045033680312868,-40.682178736035056,-88.58331402724176,-0.2526108611124575,1.8577629117102035,-0.8029588549789406,-0.6169459129082397,-0.380338623388918,-0.07753661036227004,,,none
1.5214420000000004,-2.902584877129763,-40.95162562852514,-89.83078116956588,-0.5291858895894279,1.9852004596629895,-2.028745166030752,-0.051498496775525995,-0.17385295666664263,-0.10665337674786612,,,none
1.5309540000000013,-2.7433214380266326,-40.64261749413251,-89.87541368110902,-0.4493686938176059,2.3941056470579207,-0.7598284106524369,0.06193766610970725,-0.02396489538636449,0.0058801712180085635,,,none
1.5406469999999999,-3.618457932456636,-39.772476769973906,-88.79816607378073,-0.19073350304488118,0.7988692348196067,0.40715633288156067,0.1726575643153622,0.1358232305395751,0.10256303366170223,,,none
1.5501470000000026,-5.163377992000908,-37.062523578693195,-87.25446476334169,-0.08050386407019064,-0.653306981875391,0.5025913988401828,0.5341175075975111,0.26044602511926807,0.1370355097877266,,,none
1.559666,-6.460972179398528,-34.164369660838645,-85.74253974404344,0.33451545530784194,-1.5632024438318233,0.5908602501629354,0.5665374031250231,0.24565253002625623,0.17656130450816065,,,none
1.5691649999999981,-7.760609335318151,-33.70998444806831,-84.72871803186688,0.36249522922185756,-1.921140750692695,0.6809788471349723,0.07295603953686411,0.2226192663608567,0.08119893940651919,,,none
1.5786799999999985,-8.201024223879362,-35.40401953775517,-84.4731491456644,0.4232260789509259,-1.6773343089095523,2.1746395052675442,-0.3445282575407134,0.040228449877468236,-0.009435533009372811,,,none
1.5881850000000028,-7.605224782181664,-36.940674094274996,-85.29940819047458,0.49524726969992255,-0.7650320153701393,0.8365183978215497,-0.29776247953215207,-0.12358017848657982,-0.11361102193664945,,,none
1.597718999999998,-7.0623583936771395,-39.51235928432224,-86.7602509772699,0.12304834424471733,-0.12404746012029919,-0.15860722764629087,-0.5077378202466324,-0.12094722645219176,-0.23014992972633588,,,none
1.6070390000000003,-5.979013504710383,-42.96545317827135,-88.26215310995649,-0.02379515559672721,0.6823006651861424,-0.6762164065315782,-0.6835452704467916,-0.1933063923303611,-0.16799212744207262,,,none
1.6165519999999987,-4.62525534935863,-45.42583902522122,-89.59465119336686,0.042462429219498755,1.512978504564856,-0.5989492883724243,-0.4888308587263828,-0.20364136324369017,-0.0835085381291067,,,none
1.6260580000000004,-3.8999175247394873,-45.81789651000501,-90.3953386510013,-0.16093238544743635,1.3973627036206948,-1.4763488927362143,-0.07848852912190117,-0.10157564235368963,-0.056509845399699325,,,none
1.635590999999998,-3.7392589540789,-45.33967826798362,-90.25135274636989,-0.08201583176069403,1.0754036626359214,-1.277230118785068,0.09562281370248776,-0.023055760493147785,0.05180562938398851,,,none
1.6452290000000005,-4.17728478723547,-44.52248871550146,-89.33722874960353,-0.01505204898891357,0.5018428250436048,-0.6712436238331413,0.1633965938436718,0.0626735919582056,0.12108332813624688,,,none
1.654798999999997,-4.766673869519919,-43.15190175691221,-88.13762478214964,0.0445079569304384,-0.06251258944484475,0.11195109924434819,0.27248058468013364,0.09114483480392661,0.15843842018310025,,,none
1.6642709999999994,-5.041221309761466,-41.512291408962525,-87.12729891860776,0.1883069259531684,-0.3974244009579721,0.740910163161909,0.32633142581523555,0.05416238713697657,0.16525969688508416,,,none
1.6737839999999977,-5.060264831807462,-40.59237050912875,-86.61503542475266,0.22716741796188425,-0.7718613855034384,1.2954532142236794,0.18375973288221326,0.012921744579049871,0.10006159548594724,,,none
1.6832629999999966,-4.6841350700697815,-40.64102853350289,-86.78905840025661,0.17133970290216874,-1.3878382379159433,1.11996674213873,-0.006437646691473424,-0.05763051499530474,0.014183981429095506,,,none
1.6928059999999974,-3.890819591736746,-41.489277542983245,-87.64109195974619,0.1720398988779299,-1.148473740588889,0.6719146226001591,-0.16381680967927092,-0.127867069675001,-0.06624592111638165,,,none
1.7022819999999967,-2.9075762912834047,-43.382347131249034,-88.96090922092458,-0.001419766982770122,-0.4047623087137768,0.1451389734892301,-0.37455329171660445,-0.15647034781348126,-0.1313886333762076,,,none
1.7118359999999981,-1.5840369701676988,-45.922943458355405,-90.36310191031191,0.02005885709018493,0.6158540005148883,0.20369669879895666,-0.5074159017558708,-0.19185556034007611,-0.1095075826207868,,,none
1.721345999999997,-0.38206115649264544,-47.648227445469324,-91.60929512108467,-0.035508522836561446,1.084434054085064,-0.35646891626010613,-0.348112765105102,-0.15904049318281455,-0.08875218643380392,,,none
1.7306930000000023,0.3706838697980172,-48.07614318340973,-92.34491330607007,-0.09114715686737428,0.9106943516241782,-1.109406067900351,-0.08907393796350137,-0.09813656463925978,-0.045305609439842735,,,none
1.7426400000000015,0.6292064985428939,-47.936574613867215,-92.42863946912483,-0.016370999424923354,0.8059894738517922,-1.2283999558978693,0.0,0.0,0.0,,,none
1.7496969999999976,0.39499977111974977,-47.64602216083783,-91.94536158070309,0.017091725134687215,0.4634113146517535,-0.7994723747721246,0.05933646722352167,0.029259020175387306,0.062028342087796486,,,none
1.7593460000000007,0.026209629658319966,-46.81879157327826,-91.18924175772064,0.07074461516653549,0.29810358928025554,-0.16381873472836495,0.1669414766107742,0.04558747830738128,0.09718263437529065,,,none
1.768886000000002,-0.2355262467639986,-45.59291861049368,-90.5261853035013,0.11250034574385813,0.05938837345361031,0.4489370491698575,0.24596582316338028,0.03258784900839717,0.09492967237936299,,,none
1.7784079999999989,-0.22588331402715375,-44.633172480533304,-90.21580056741358,0.13369671638354264,-0.35808615953176515,0.8712706315321923,0.19215222490474157,-0.0026079619402890036,0.06351571928551579,,,none
1.7879199999999997,0.11397804154633258,-44.201448292465,-90.39621952649043,0.14446362037321323,-0.9563470780640598,0.9294793649248712,0.08618082656210936,-0.049063818030794855,0.0115060214322671,,,none
1.7974159999999983,0.7560596697256179,-44.29287119387363,-90.99431928788619,0.1070265540414554,-1.0209912806054708,0.5589639107341445,-0.019350218557673122,-0.09187454225622839,-0.04775808062580543,,,none
1.8069369999999978,1.7524684394155323,-45.35943434892018,-92.02598627005509,0.06444172754119541,-0.5231822225065237,0.3267085934695842,-0.21712424853366694,-0.1359393818468665,-0.07882591753863719,,,none
1.8164370000000005,3.0194989234924927,-47.12185004857377,-93.30241966832435,0.045024368076996626,0.260527002438556,0.354015354520745,-0.3605875012879623,-0.1589806011494904,-0.07957638110730225,,,none
1.8259779999999992,4.242386708018695,-48.435479902778155,-94.50664652165939,0.020251053619983903,0.6493869290075764,-0.10529086861295649,-0.2735661753286977,-0.14631235722467362,-0.06559875127725673,,,none
1.8352920000000026,5.22391580932162,-48.86797348130592,-95.36803273045024,0.02139888194162366,0.6912414280358506,-0.7963394441052809,-0.09742550475471894,-0.12190997068230187,-0.029055768928399908,,,none
1.8447999999999993,5.942760040718762,-48.9724364235594,-95.854687442561,0.044635453786772646,0.644748359678569,-1.0311541883512745,-0.030063019992300162,-0.09207581543435076,0.011056581118078434,,,none
1.8543280000000024,6.393644289203959,-48.94789074201137,-96.00254451232267,0.02736623839420558,0.5680864497639586,-0.7475239280667794,-0.0012339471375450316,-0.059463628141347716,0.03848875317089078,,,none
1.8639790000000005,6.622333708635367,-48.3932846757123,-95.87024182758857,0.028750926306230006,0.4548553245498326,-0.28036120838270395,0.10732346593162816,-0.04156172155417269,0.06087674906471294,,,none
1.8735199999999992,6.740660202918093,-47.35521308926253,-95.644028879251,-0.01012851605229571,0.2576832022454963,0.16503808033566186,0.2052065003752434,-0.03666203453368126,0.06286998528418548,,,none
1.8830069999999992,6.921131880978316,-46.421963612240305,-95.56675963253518,-0.004419352194418953,-0.2160794005860111,0.4766413142157722,0.1835529050515801,-0.04282881460796275,0.04185329174968057,,,none
1.8925139999999985,7.246853072804376,-45.86587207186299,-95.75641716208541,0.009532832948004494,-0.5758169774748797,0.7384882765262605,0.10634415387085831,-0.05594875255739293,0.009059497400383299,,,none
1.9020360000000025,7.679374530605923,-45.664874058447715,-96.24493518316282,0.00816710713917816,-0.6873507600966446,0.6529549158946618,0.033710110232187444,-0.06428604571335396,-0.03575827380879214,,,none
1.9115460000000013,8.357629908728997,-46.06357892016086,-97.06481137826594,0.008650870575577264,-0.47398471150846694,0.4228914628051098,-0.09025088266726586,-0.08467605432469627,-0.06668833365865341,,,none
1.9210139999999996,9.323853296519728,-47.040279053005264,-98.1582364274713,0.051627758455082745,0.0040494072766367895,0.3218351277900313,-0.21145322973999647,-0.10596307835981786,-0.07846545979892491,,,none
1.9305420000000026,10.335098621581434,-47.97644940932306,-99.31119297510523,0.07723024487434071,0.33564098244076745,-0.020888273871506692,-0.2060339677835213,-0.10671254898063189,-0.08153524278063018,,,none
1.9400860000000009,11.289050132963927,-48.44499832040653,-100.30859748982353,0.11885284879427305,0.5190637235534293,-0.48706480695771803,-0.11412680605528985,-0.10943341473385425,-0.057282956995741686,,,none
1.9494260000000025,12.193588494019926,-48.609465980930324,-101.11352228705617,0.15378865678343798,0.5761731397178546,-0.7536986974668046,-0.05464682849614175,-0.1117273753728786,-0.025456862667176408,,,none
1.959111,13.019135229403183,-48.56460340355826,-101.72099369729051,0.11601009522492867,0.5591597195984633,-0.6469426378304823,-0.012839274448925532,-0.10894966875219679,0.002339213480014734,,,none
1.9686280000000025,13.682228347691632,-48.10120024484517,-102.06172480629029,0.07240457568880089,0.4509154377107914,-0.3642902806457041,0.0726057188402055,-0.10548621130599896,0.030962115008306517,,,none
1.9781699999999987,14.18907997205617,-47.24697276990439,-102.18476681294896,0.01780189185759717,0.2643147783827252,-0.05987417673309548,0.15287072519834197,-0.10273000881040707,0.050397985037658424,,,none
1.987643999999996,14.658816492411328,-46.39838537212919,-102.29055546109429,-0.04804803619821646,-0.03209277255689052,0.2660420544076082,0.1524049403317984,-0.09890808631442359,0.04741038493440815,,,none
1.9971430000000012,15.151843218215163,-45.766660972071705,-102.50480584317079,-0.10438555036150966,-0.3052755335838555,0.5189079183289149,0.10883700260130666,-0.09402974138276406,0.02821496611361472,,,none
