timestamp,roll,pitch,yaw,acc_x,acc_y,acc_z,gyro_x,gyro_y,gyro_z,acc_mag,gyro_mag,markers
0.0,-72.7340461625337,-29.16263131349755,68.00346470821059,-0.1056996591832764,0.0018136814201440042,0.0679327480934884,0.07235431328233184,0.13743445069593158,0.12061811833261715,,,none
0.009523999999998978,-71.74674602708801,-29.334608652751683,69.14934459685627,-0.12844214943053217,0.03051254836170092,0.08197777415931125,0.08753947205365914,0.12257404749469517,0.10976114792839348,,,none
0.018974000000000046,-71.04629624607986,-29.56707408508192,70.37245949905983,-0.08605031278393166,0.02817737058979462,0.10783952363035064,0.08498543254540918,0.09928394453990666,0.09777837586431716,,,none
0.02844499999999961,-70.42429261125011,-29.753387021149926,71.59586106760662,-0.07170555149057556,0.02957616130810102,0.09969751243471969,0.06969848295800875,0.09080213107109769,0.09615987954298398,,,none
0.03801099999999913,-69.80711720562773,-29.83977348162661,72.7687320717507,-0.06965185737453154,0.02583301358142631,0.07617890558925465,0.04316096980011858,0.08283507650885297,0.0952302754781448,,,none
0.047556999999999405,-69.20721557746134,-29.791331835512175,73.95302527380386,-0.11298402742253338,0.030000137658976734,0.08312190782612615,0.013609201113963042,0.07967457979476826,0.09539210911305643,,,none
0.06653399999999898,-68.1602393339307,-29.35815661357876,76.30733060995769,-0.035014249789497826,-0.03762800423079608,-0.09711815562095671,-0.01987774444181579,0.06282217153463945,0.08709422429526732,,,none
0.07602900000000012,-67.81707759128768,-29.244094611932443,77.51818052606131,-0.048791730970826196,-0.050625933198488446,-0.13672492116468485,-0.009195564116104019,0.06345896680490881,0.08788031809802195,,,none
0.08551600000000015,-67.3875581039048,-29.216191953795256,78.62456323868852,-0.08460246402543456,-0.042317975472827105,-0.15866098292094735,0.009444538351080431,0.07465929086236064,0.07815237131651824,,,none
0.09749599999999958,-66.88825100228543,-29.2841659141843,79.59812444796272,-0.04432658613244295,-0.03845046596894779,-0.12417144405542328,0.029184849800327914,0.08331682375236862,0.06265515688308089,,,none
0.10461499999999901,-66.1746825405908,-29.416672822662832,80.4551790471944,-0.06486764767656085,0.0004150311303537785,-0.07801628603926898,0.046730537398134375,0.102801282600442,0.06470196563286867,,,none
0.11412799999999912,-65.44221791668681,-29.612375660499293,81.29496249257552,-0.04982611357107876,0.023690688997637672,-0.027934025694629615,0.051664716265282344,0.10900880104257088,0.06790389129240358,,,none
0.12364599999999903,-64.74892073007668,-29.7516251885246,82.12777527721812,0.0,0.0,0.0,0.04186127540554823,0.11327294444541812,0.07503113396369802,,,none
0.13311599999999935,-64.02082573581744,-29.768972791398916,82.99664101356029,-0.027736939980456354,-0.0032079534549427865,0.011479144682897688,0.023314307452367962,0.119021849921179,0.09064705093738988,,,none
0.14266199999999962,-63.320972255873606,-29.637090018051108,83.94797886786213,-0.0416924085103651,-0.05476374632706975,-0.012853274370567252,0.0005481491905629473,0.11595487494932842,0.0989786445254045,,,none
0.15212499999999984,-62.62088755127032,-29.37092486595028,84.88737417743953,-0.04905122540108583,-0.10185243584357426,-0.03591482766773032,-0.017679782550524638,0.11624676226182296,0.10104170317443989,,,none
0.16168300000000002,-61.87239241702993,-29.07763986532161,85.76953643683954,-0.07302978725080074,-0.104959016744176,-0.021390582233735037,-0.025712343690193075,0.11747744697686982,0.0951053707433195,,,none
0.17118699999999976,-61.11144181727299,-28.807738319158364,86.56882243114809,-0.0632896315152942,-0.08765597463185276,-0.013722832155364637,-0.026205729333450684,0.12218295334917079,0.0791241340862393,,,none
0.18069700000000033,-60.30634119842152,-28.621987918482144,87.3232609815515,-0.03601356897592912,-0.07141100484759284,-0.018641978688342845,-0.0162617186993097,0.13239519218313936,0.07444493997708342,,,none
0.1902159999999995,-59.52001748291713,-28.57859307212665,88.09293611221608,-0.048687882617273096,-0.01197479252493809,0.024945086622885953,0.0017262871051666377,0.12587793311151657,0.077256209720119,,,none
0.19968899999999934,-58.75058520986621,-28.588719121752963,88.82531537180925,-0.056478710412326855,-0.01515117913928026,0.02992105416364123,0.008336048264513072,0.12390819458373296,0.07584630714006484,,,none
0.20924100000000045,-57.96086647813448,-28.554309437902944,89.5341851213594,-0.04962583472151594,-0.03985420608430557,0.013218684145562182,0.0028219392284646897,0.12777642278020487,0.0765046748180734,,,none
0.21870299999999965,-57.2484285648336,-28.466288204345613,90.27331989068966,-0.04935849943111935,-0.06060813480820214,0.003594804031358626,-0.003623754507240906,0.11619759315159517,0.08111408866433477,,,none
0.2282669999999989,-56.548725882125375,-28.306381624199574,91.03599182105074,-0.05672965707065654,-0.0728018002860921,0.004898886967735337,-0.017193313623353933,0.11174473487478932,0.08587228915403115,,,none
0.23776200000000003,-55.83257822252153,-28.045962729581255,91.74633667793948,-0.06027387686419524,-0.09438362277494619,-0.0007338456298451835,-0.03527899790629755,0.11079808973523826,0.08026334670876563,,,none
0.24728200000000022,-55.173354796973584,-27.75635460840805,92.45976372404394,-0.028007424909174607,-0.08925900632776913,-0.02128831925547935,-0.04309020168916653,0.10685657063657007,0.07455763840994528,,,none
0.2567369999999993,-54.45039968653091,-27.51893657469192,93.1123849477159,-0.06931972380889038,-0.06044419239618309,-0.014766652675273462,-0.04074931112943843,0.1099204126471718,0.07227949657788449,,,none
0.2662469999999999,-53.74264304673247,-27.352691317209132,93.69349370692076,-0.060937032442591785,-0.02978445954592641,-0.005944636773308624,-0.034661134378773925,0.10976118463634196,0.05970590084512353,,,none
0.27580899999999886,-53.04441960981562,-27.260223630478137,94.23769750636626,-0.02876402209615611,-0.012358853646786783,0.01979500397356523,-0.02463806490955174,0.11276529290302416,0.05105637962246849,,,none
0.28531899999999943,-52.334256918507606,-27.249595700329714,94.73633545513069,-0.04085949448778408,-0.018364653099782604,0.028985299996368317,-0.011985076554148046,0.1139993185387065,0.05042828460814509,,,none
0.2948329999999988,-51.65168282302147,-27.26997916767006,95.25453363915615,-0.045476803620023605,-0.021379483889469513,0.03322149868760385,-0.006300237663787046,0.11044593899783262,0.050131462932001276,,,none
0.30435199999999973,-51.00475429939708,-27.257328884043293,95.78936202285273,-0.04240019698040035,-0.020803358222286482,0.03187191789158547,-0.008972906545331115,0.10580241826320355,0.05021506183824698,,,none
0.31381999999999977,-50.417440928786135,-27.199428784605004,96.33197802573463,-0.03373629781451903,-0.017214496600108594,0.026052302420758976,-0.013721092163543502,0.09802967766708426,0.05405933292480279,,,none
0.3233680000000003,-49.84099986830777,-27.091651245861296,96.89982192521795,-0.0431420820235603,-0.05946465529598529,0.01981945602138086,-0.02038349901853303,0.09123581282876415,0.057747813476610156,,,none
0.33287599999999884,-49.33106167233269,-26.943286643391772,97.48535995829835,-0.024189321743292715,-0.061837959655064036,0.0013180655383021752,-0.027105373306898356,0.08247336601923315,0.054174630053035494,,,none
0.34238700000000044,-48.82373071104486,-26.78380918271332,98.04327900469966,-0.018365327952990004,-0.06466243374470144,-0.004339302612898115,-0.029760776021956363,0.08151884620779337,0.05122465015916477,,,none
0.3518939999999997,-48.29221646283345,-26.6568264264913,98.5665530699264,-0.030779339427534448,-0.06607557325457819,0.009667314920743611,-0.02528764932479855,0.08144491489308134,0.04677122713152959,,,none
0.3614069999999998,-47.79779728523449,-26.585743401425802,99.0342630681605,-0.017200966465722972,-0.0484591050556678,0.002343166845544949,-0.017463311873053746,0.08045734576725615,0.038776276936886865,,,none
0.3829010000000004,-46.77178874377468,-26.562872645513465,99.87231842818218,-0.023414064838209826,-0.049370292989601994,0.010827379895027071,-0.0024248780295880092,0.08320230257581307,0.030956754872798593,,,none
0.3899449999999991,-46.27245321570824,-26.58034862233587,100.29360886065649,-0.02989169951466803,-0.0569978527789858,0.01696460983003063,0.0003022682120420116,0.08414409871020337,0.033241489455101136,,,none
0.3994,-45.77502411206506,-26.570263458994685,100.7077811596578,-0.03948447300605481,-0.0758077894472399,0.023964863631800875,-0.0017227756106099252,0.08091969019775415,0.03517514410988083,,,none
0.40892200000000045,-45.33835329669514,-26.528074550598085,101.1474606776872,-0.004600475274841871,-0.08472773453985549,0.037175442289940866,-0.005295037634410894,0.0741454411127519,0.03657006626327482,,,none
0.41842800000000047,-44.87219262081308,-26.459161124556946,101.57025335590617,-0.02507386601584221,-0.09729026052217435,0.04444385278671779,-0.009615071547789908,0.0737851056647309,0.041657858514228124,,,none
0.4279460000000004,-44.45781143346237,-26.3864955079783,101.97374655541346,-0.014067463067358236,-0.09207265254296829,0.04804928526572712,-0.01015406833594038,0.06672392266817723,0.03896003495636228,,,none
0.43748899999999935,-44.062385969973825,-26.323838345339638,102.36187548024121,-0.010549642615850563,-0.08814445167760038,0.052576910233700765,-0.00886329605485199,0.0644165243084139,0.035129809560612194,,,none
0.4469999999999992,-43.67778563801516,-26.289077600462274,102.7353960689244,-0.013669194918852497,-0.08341847721545503,0.056030078334331025,-0.004488895118883118,0.06294336672865616,0.029837284919177823,,,none
0.4565129999999993,-43.333290515473415,-26.29722970331257,103.06700234447061,-0.005785997394818069,-0.06813860469255112,0.0607716478811034,0.001853902159100008,0.05940670231595992,0.02358493296766834,,,none
0.4660219999999988,-42.99611998682827,-26.330952693505683,103.31159696226855,-0.02214213535665823,-0.046087212335360075,0.08032036345029807,0.0048679790190821574,0.056512354846568746,0.01850138582540764,,,none
0.4850429999999992,-42.442534751374794,-26.425529378365578,103.9495329647084,-0.03034476806505581,-0.05011094808059351,0.08314147551294478,0.0,0.0,0.0,,,none
0.49455000000000027,-42.2138340599473,-26.47058704029732,104.28310605130262,-0.05975066904575704,-0.050941693822704776,0.06953783727165577,0.0,0.0,0.0,,,none
0.5135709999999989,-41.82010929980468,-26.505909835430334,104.98251175481928,-0.06003364232769988,-0.05309898190791961,0.07173245341441786,0.0,0.0,0.0,,,none
0.5230909999999991,-41.663441026022404,-26.517926731049467,105.38387452546752,-0.04400178048118691,-0.0396604752765706,0.053242316272562,0.0,0.0,0.0,,,none
0.5325939999999996,-41.42412485747388,-26.52018781140001,105.73877663211073,-0.05124379363608407,-0.0891550335862128,0.05721608978539676,0.0,0.0,0.0,,,none
0.5420629999999989,-41.22291783140573,-26.51787313632339,106.06472508075699,-0.04158067954864512,-0.10300236958439979,0.043678387816885336,0.0,0.0,0.0,,,none
0.551620999999999,-41.055582398678574,-26.51722159489755,106.4405454081115,0.02569463009143604,-0.0947170172809716,0.048637700667749716,0.0,0.0,0.0,,,none
0.5611280000000001,-40.79488532070009,-26.49774662745577,106.76301791205294,-0.0029661329822456874,-0.1104450902737669,0.07173594256298015,0.005635997161356966,0.043021342473270476,0.029029241976538778,,,none
0.5705949999999991,-40.66565336207856,-26.47854868241985,107.09583335852145,0.06073825167017295,-0.058326459945014036,0.06384969975080444,0.0,0.0,0.0,,,none
0.5800989999999988,-40.510172390094326,-26.444377374162645,107.4363468885348,0.06263971834346102,-0.02848836298712151,0.09238408879859221,0.0,0.0,0.0,,,none
0.5895689999999991,-40.29120074366486,-26.41928322669039,107.76331251616696,0.038249527250549906,-0.009986431857639505,0.13446083337602316,-0.01673706246289969,0.03586583467768545,0.03505981872600316,,,none
0.5990729999999989,-40.08105536410757,-26.37909244856553,108.13504596014117,0.11107749990957527,0.04828833696154305,0.11888475002592039,-0.01934142686245046,0.033332639103705326,0.043635197533136647,,,none
0.6085609999999999,-39.78982308128693,-26.359168398202765,108.56951870202559,0.08463170894943287,0.011741429269524154,0.1387103095007488,-0.020332987361417195,0.048289192130378494,0.0661953419152381,,,none
0.6181929999999998,-39.65403275129432,-26.348861525860098,109.1635815642162,0.14658445684775795,0.011285792229912552,0.07562876395158459,-0.013226917959736939,0.05207980358123981,0.08252605678077177,,,none
0.6276650000000004,-39.54119140609998,-26.306644204265176,109.8053673358592,0.1732072496394396,-0.01376659000854831,-0.020993032930819885,-0.011817188254341669,0.05518237172106368,0.09070931570218295,,,none
0.6371539999999989,-39.32465223621096,-26.269417875275362,110.2247834766333,0.21069786262244664,-0.0533541517191431,-0.14237629017724265,-0.020357040385464393,0.03394323300896594,0.06931448501209293,,,none
0.6466429999999992,-39.32116996244671,-26.177550949546447,110.63185102480713,0.3057337128093045,-0.07308985452199815,-0.5333128994963959,0.0,0.0,0.0,,,none
0.6561450000000004,-39.85075498032063,-26.212134989244817,111.17028031178982,0.1520961598784756,-0.14859965151531607,-0.6323987014941891,0.040632006963224825,-0.08630823818567712,0.0023463970715484122,,,none
0.6656610000000001,-40.94495541509875,-26.205149509918897,111.61477126856299,0.0954109177942541,-0.2110132841471508,-0.7698272521115471,0.07084158657539112,-0.1833524917975399,-0.0637637096014872,,,none
0.6749829999999992,-42.34031369780539,-26.07831677522351,111.96372486842277,0.026631078470556516,-0.19418358873188285,-0.9291954494651861,0.07012412068037008,-0.24213245745616255,-0.11071110387581833,,,none
0.6844889999999992,-43.94276304503526,-25.887242165953676,112.31159884096,-0.09769667064432216,-0.15082050410452927,-0.9716828255254049,0.07398070194334444,-0.28137587681770376,-0.130478165237861,,,none
0.6940109999999997,-45.726668590268076,-25.61915987477885,112.64520540310325,-0.1261236106037285,0.010024661076363078,-0.985145823891267,0.07420983644025723,-0.31758829541334876,-0.14665156441660804,,,none
0.703519,-47.36959345592285,-25.270042592150258,112.9689023005989,0.08873815316098332,0.24050677100099785,-1.090530223373841,0.0514215884153713,-0.30078747295221303,-0.1307926672822009,,,none
0.7130209999999995,-48.457464231644984,-24.956167771681372,113.39390516267585,-0.24982362559670085,0.08777080798953962,-1.1283394615039355,0.02029543990863212,-0.2059949973954485,-0.05513685492670365,,,none
0.7226210000000002,-49.54707926710675,-24.76185649713835,113.88533488061374,-0.2104012866934505,0.11627734005552921,-1.1862730509439343,0.04410753515855055,-0.19685282831407624,-0.03674009795497586,,,none
0.7321299999999997,-50.28993896617391,-24.62699836650791,114.33066653320381,-0.015311738551476922,0.11651936586850892,-1.2688110562194432,0.030771399122966142,-0.13432318452025138,-0.010681386827832939,,,none
0.7416419999999988,-50.47405468034733,-24.540539402336535,114.70823487534145,-0.1657576920453994,-0.10088282702142959,-1.2547705878887097,0.0,0.0,0.0,,,none
0.7511379999999992,-50.49001480649935,-24.480995168903256,115.00335660987228,-0.026229128826969608,-0.061762610763500425,-1.1934875621968823,0.0,0.0,0.0,,,none
0.760610999999999,-50.14177486258454,-24.336339322057277,115.18748779739443,-0.0038904633481016398,-0.053850004119522295,-1.087778353392526,-0.05321572501498518,0.04514856130189811,0.03676368154723048,,,none
0.7700560000000003,-49.630804221256476,-24.08900244927087,115.3155699545716,-0.0396227424216695,-0.045023198553339576,-0.966013546070942,-0.084665721422786,0.0631690265415612,0.04167068865410062,,,none
0.7797319999999992,-49.20228290352231,-23.790610712932608,115.50570572605346,0.061585552371276275,0.07865235903696928,-0.8752725614457967,-0.08765847409959135,0.04510671541196057,0.04992569004041418,,,none
0.7892859999999988,-48.80644007482314,-23.45970773949553,115.82259562554567,0.004952398755410017,0.05718002468150897,-0.799843449943895,-0.091206400256032,0.036652579967772936,0.06937346696945601,,,none
0.808325,-48.69237272055591,-22.903032972968717,116.70641692831256,0.0989282790838148,-0.03580114887690941,-0.8466693306507427,-0.03860389308935427,-0.02999494087448794,0.05967358809127522,,,none
0.8177849999999989,-48.89316678214306,-22.739991681391352,117.13832316008475,0.04876942671992662,-0.1388368336609038,-0.8705654168284042,-0.012261556320388368,-0.04783713485502436,0.03962676845115079,,,none
0.8271509999999989,-49.25495240514727,-22.60947488372696,117.37037793829846,0.08219989954714571,-0.13989582356383076,-0.9346446901342219,0.007437762693023938,-0.07137741531520567,-0.0010760062065666204,,,none
0.8366159999999994,-49.656014622104024,-22.491819810393114,117.47596591111963,0.03521905468436576,-0.11699412295140911,-0.9709533105078209,0.013305164193071631,-0.07666597378594481,-0.027769056489448402,,,none
0.8461789999999993,-50.09837333517919,-22.362041909235742,117.60428869360307,-0.027492450276937214,-0.030758448410128997,-0.9769149488066897,0.014936791547175799,-0.08458651152560365,-0.041200353976408165,,,none
0.8556849999999994,-50.53028854981487,-22.174653595376554,117.7376007975784,-0.04896152869402211,0.07220245888357331,-0.9935690361459946,0.0040578472195185655,-0.08829288220619541,-0.03766598400858327,,,none
0.8651949999999999,-50.89414708012963,-21.93212820702498,117.95592222622784,-0.08661704100317062,0.10257535942733395,-1.0182013350707726,-0.011292640981452566,-0.08239877328601312,-0.012163971129390593,,,none
0.874701,-51.20086530179002,-21.66730630812518,118.29950809008783,-0.07842357516918809,0.0972784454812952,-1.0422069592275194,-0.019793838429149033,-0.0753039093178576,0.02022174893173883,,,none
0.8842979999999994,-51.38180657590051,-21.392562533460964,118.7228414248643,-0.06268688003714279,0.02694126525024544,-1.0656541909358164,-0.03219060661212019,-0.055904846189268595,0.04620951100923705,,,none
0.8938109999999995,-51.4319665835507,-21.13109007117644,119.15193388706979,-0.02937529010131807,-0.06663005529974342,-1.0787043059368358,-0.04124713300292066,-0.03357036889948509,0.054544072297518495,,,none
0.903243999999999,-51.372117231636416,-20.913356034558756,119.51437951937419,0.01804108513128152,-0.10667776156489157,-1.0585120174898148,-0.04346982517823299,-0.011658978094292831,0.04851770864943904,,,none
0.9127379999999992,-51.206135281219346,-20.730328142610514,119.78067986161352,0.02013025045510939,-0.11152406650340839,-1.0004729447011673,-0.04722533518997054,0.008801755861027143,0.0326396635124917,,,none
0.92239,-51.01259705996709,-20.558426547994507,119.94439054320696,0.02795014717279991,-0.05975982433736355,-0.9380091900090132,-0.047924147313884564,0.014239262984140022,0.01296502693495289,,,none
0.931951999999999,-50.85776884732083,-20.38781816964172,120.06981472399706,0.02233700602901658,0.011112517353902604,-0.8809163373285723,0.0,0.0,0.0,,,none
0.9414549999999995,-50.79922089434446,-20.204785352769875,120.20356046532409,0.000576547378831842,0.054125948054581104,-0.8409219611325591,0.0,0.0,0.0,,,none
0.9509340000000002,-50.87085966451885,-19.988548336305392,120.43293442672737,0.004781232473024794,0.05843965002757368,-0.8470814069616158,0.0,0.0,0.0,,,none
0.9604379999999999,-51.050464733723366,-19.745711391631453,120.76229043240853,0.010954712498445639,0.009634010576896905,-0.8890287169635671,-0.0245854328889207,-0.05388199402113982,0.03243671851666483,,,none
0.9699899999999992,-51.30742735712103,-19.492842986861895,121.20594217726878,0.009589502923427832,-0.05255373224929868,-0.9401645017446636,-0.018351567351382436,-0.06763882321517661,0.03595792380035642,,,none
0.9792769999999997,-51.5778361689374,-19.238171057620296,121.60747627079198,0.014990814993593749,-0.09097387206309172,-0.9932034746560409,-0.016792153744687677,-0.07019225920698532,0.02639138651873645,,,none
0.9887879999999996,-51.80214967086909,-18.998703369744224,121.92466670158554,0.004288985063704906,-0.09543923456620151,-1.0264880756217374,-0.018323594769332804,-0.061348982536204424,0.011363227910035238,,,none
0.9983430000000002,-51.95589025886891,-18.792112830948792,122.13700296990973,-0.014908230667596395,-0.053535311763168086,-1.027199675822953,-0.01955266075961117,-0.04665654553062956,-0.0009005440245395202,,,none
1.0078479999999992,-52.020999703644456,-18.611301085509638,122.29107522403841,-0.04237467364775843,0.004099540673784141,-1.001078808079618,0.0,0.0,0.0,,,none
1.017538,-52.00878107305604,-18.4395025177416,122.4707689067596,-0.0949610697473961,-0.008174928327003105,-0.8853873972174309,0.0,0.0,0.0,,,none
1.0270150000000005,-50.218964793973505,-18.289150426031394,122.92834100924559,-1.5437962345945868,-1.9433864242452001,7.523231287022091,-0.20934790128282446,0.2697272129091655,0.18067732440601939,,,none
1.0365640000000003,-32.16938530088003,-14.112557717134004,121.66324312151002,-5.238375887144564,1.6950920530584843,2.327412669854633,-2.549744511552541,2.496471879542838,0.8081202834696465,,,none
1.045895999999999,-10.126231742030491,-7.787698287457479,119.95151738511807,-9.339678288961291,-1.1746118513197863,2.6540092018744037,-3.278987055291642,3.0988843505034613,0.6120803398278488,,,none
1.0580409999999993,11.13684834500408,-10.316230641713954,121.31087116810203,-0.13937998223894676,4.2951406972954125,5.720884062122744,-1.711925342519717,3.8734474468436058,0.9389225372781215,,,none
1.0674409999999988,31.35857157320721,-16.275610833789052,126.00304043669806,-3.0847949307561326,-0.7755776825102682,-3.5870522562790774,-1.202919348771927,3.938919596619386,1.860910403414777,,,none
1.077057,52.1441535319185,-24.633820669046855,128.45960877493937,8.081737539584678,-7.708355863641946,5.696274154569093,-1.0440572992856891,4.110899865642659,1.9419091588917405,,,none
1.0863820000000004,72.32585304600744,-31.940480174028806,119.53462744648493,3.940052171012697,-0.8474912672862981,-3.0587322202037597,-0.7896370431386607,3.757122323180505,0.1460194453484284,,,none
1.093449999999999,94.24321847146864,-33.27828704640075,113.68425814478147,0.9083927812513648,1.6686577447238742,-1.4573806881495208,-1.4172470791338447,3.4190027935662477,1.2037799000701463,,,none
1.105395999999999,113.80611430935699,-31.784424733177623,116.9384308181203,8.202969623832754,0.87701328026432,-0.5059302477880139,-1.681329505330599,2.861538429431048,2.753332748248063,,,none
1.114929,125.57052720279364,-25.694846816124297,119.13842537596214,0.8460265320383697,4.444575047995697,-3.061741760355129,-2.0444148186573634,1.2530629179182213,1.5719100395514944,,,none
1.1244370000000004,133.77501139234784,-20.14502048733352,120.28066664430825,-5.946032641938423,3.8619041306060526,-1.854393910772457,-1.7137890533408318,0.764906215134041,0.8681283036743458,,,none
1.1315639999999991,144.49630654207877,-20.48146295954876,121.09503452235899,0.2542216179813755,0.9953942151323191,-3.4577045009875205,-0.9697074345065559,1.7655747044652024,0.9078103040972921,,,none
1.1410359999999997,149.06897950323997,-20.142690664813593,116.90489132800117,-1.2142807576639334,-0.9919902886763234,-3.2734268900581536,-0.4755560433811905,0.7181020564678586,-0.5207292009968049,,,none
1.153041,152.9057280973701,-19.52464463930982,108.71108712625568,-2.0420725326114493,0.5799009364265282,-2.6850361132624365,-0.39435179665911696,0.6185048526065144,-1.379333318842621,,,none
1.160105999999999,157.26270566945675,-23.56473283535797,100.4410088756094,1.8745000437261718,0.1974951831952108,-2.507225206664269,0.578585460610229,0.9894122763408693,-1.3339995537937706,,,none
1.1695390000000003,157.78486801212279,-28.825636495130976,93.5207053910409,0.4026289563584835,-1.1171585286881163,-1.311554607533146,1.0347226666663891,0.22127299392298527,-1.338390072713472,,,none
1.179233,159.58316696510877,-30.64442258868035,88.41766617213004,-0.16733698428626878,-1.386700073898694,0.17469828925909886,0.3588745081832364,0.3188180110314847,-0.8429707309472727,,,none
1.1910179999999997,161.044052777036,-29.421621246536308,86.94173847047597,2.0939168456964814,1.2757486252095782,-0.6331803005364536,-0.23436387910928946,0.26292247972640215,-0.14909415384035707,,,none
1.198243999999999,159.31270013877577,-26.94740523197088,89.40719764127334,0.31355805381086893,-0.29677794453575385,0.3284560164213421,-0.5048532231598575,-0.28962910465952324,0.32977421543095475,,,none
1.2077549999999988,160.18220763241743,-21.51721935013528,92.4891116339576,0.06746556335526363,-0.45726657885531075,0.925846567115982,-1.0898634000100722,0.14081822448733644,0.6880359883447331,,,none
1.2171559999999992,163.97360058926338,-15.212683196560569,94.57018157034204,1.1205658609607188,1.0600491573088382,-2.073822808157904,-1.3039774927176657,0.6418113716559156,0.6553762815009977,,,none
1.2266069999999996,168.79274980359895,-12.329310024924684,95.43308808139898,-0.16280253264423433,-0.3220329673565194,-0.7979254895294634,-0.6565082161405785,0.8833773312574041,0.4023295913178588,,,none
1.2361819999999994,175.61247929370398,-12.239433213782279,93.8671426268601,0.44653284093686496,-0.8676871759723683,-2.0278564604965292,-0.12607011125738593,1.3282473772811134,-0.022667670117135986,,,none
1.2480789999999988,-176.84805593511734,-12.226402048273247,90.64641038527228,0.26468394514977533,-0.5456973470019623,-1.0604398491137617,-0.07075238007219063,1.4735827267075003,-0.4804188479660031,,,none
1.2552029999999998,-168.0021822000344,-11.470706151115856,86.36493649786114,0.4124091499805515,0.5411797601610727,-1.3181643657525095,-0.11874393673765601,1.7360084479850146,-0.6630614769379363,,,none
1.2647399999999998,-158.47587696844374,-9.697202253364631,82.80159714537558,0.6007113279952683,0.5722030734994533,-1.5453411245938888,-0.19024422930029702,1.898681644631504,-0.5365214943547428,,,none
1.274248,-149.90840810956968,-5.935122645171107,81.87473305741324,0.348442001028702,0.8120183185992443,-1.6221124233027377,-0.5308981321803284,1.7810849513679998,-0.11087517574963875,,,none
1.2861829999999994,-142.54522430741002,-1.4194395365951777,83.80509584888206,-0.6405840766969263,0.7896253538974835,-2.2024045951493356,-0.7215430415776157,1.5685199336882027,0.34777383311101806,,,none
1.293253,-135.56990659175304,1.850733079083508,87.0879270536409,-0.8302213587763989,-0.4596274334350969,-1.7636645081384368,-0.5481935520795076,1.441670357935432,0.5374334413374694,,,none
1.3026869999999988,-128.86094848342358,3.6758923284877483,90.72186354382498,-1.0105452407987512,-1.5213302517460385,-1.5083562197654161,-0.34576650009561094,1.3469461509266945,0.5524935150815095,,,none
1.3146519999999988,-122.79492001198301,4.593709534584018,93.92467963699553,-0.9405824629709274,-1.4306352478729316,-0.9473784481413303,-0.23875523254486833,1.2017737147838834,0.4348637983043273,,,none
1.3312150000000003,-112.35443995024646,5.890072088837366,95.15485791953505,-0.6517650785160676,0.09854878732041736,-0.8885926859114284,-0.26158631370396485,0.9518627876985588,-0.26685658988498717,,,none
1.3407429999999998,-107.86288202688847,8.08783735143619,95.03214248459797,0.053686300915295894,1.1359858299351129,-0.8430682950911522,-0.5219836451883161,0.8472525366243664,-0.25948980627995766,,,none
1.350251,-102.9377807023662,11.635015353581373,96.1903658629983,-0.24791920999515507,1.6723072104669559,-1.4367056007879204,-0.8061225662299677,0.8933439912850187,-0.05867577301019586,,,none
1.3598489999999988,-97.63032748712745,15.642086516954182,98.58700716737073,-0.3533811807949491,0.836985017611982,-1.6765316120742153,-0.9322974036188232,0.9167135055578916,0.1184154701607291,,,none
1.3717819999999996,-91.84325448968644,19.10661781479935,102.66471158229733,-0.2940480304744376,-0.4272169469823767,-1.473756989524412,-0.8892690594968017,0.9553650885363835,0.37023746593128837,,,none
1.3787760000000002,-85.54822232664363,21.11830623010326,107.83718598335193,-0.4067045996842816,-1.34980804201338,-1.1558646180006098,-0.7036050506675934,1.0333136734489492,0.5110947554422353,,,none
1.3882809999999992,-79.20194185219881,21.461787219329736,112.12391072542579,0.1104088641267006,-1.706565033213278,-0.8289620789238933,-0.4732772058354732,1.087325638034458,0.30775152510444986,,,none
1.3977819999999994,-72.85654595450453,20.654803438474193,114.76264459889975,0.0663807572274563,-1.6217180881904352,-0.7343601168516095,-0.32860072980400185,1.15046898106745,-0.028781894122662965,,,none
1.4097519999999992,-66.66684289313218,19.430143057433515,116.29165740175144,-0.26644687779304294,-0.6318563472523304,-0.8124805863679866,-0.2862824808007344,1.1547416306073306,-0.23045026607109054,,,none
1.4168179999999992,-60.48899711043372,18.656465277836464,117.36114621152473,-1.9000513601354463,0.11979924153583486,-0.2685291628265471,-0.3950851689050137,1.1112596607122018,-0.30372169204991395,,,none
1.4263189999999994,-54.53255992463065,18.367351745275762,119.4975134024424,-6.061593392768003,-5.352537683377103,2.2022740870816824,-0.49245697309765635,1.0196144254244244,-0.06261977915309469,,,none
1.4358339999999998,-58.30918816565977,16.287610293248456,124.91113149292148,1.9099860296866737,-3.2093135691854835,-1.622202614689341,0.7386794728201701,-0.38650815730745286,1.2264783095116734,,,none
1.4453440000000004,-63.827757609253744,13.372471767241452,132.39387474670295,1.6186509456411593,0.36697877099828524,-1.3837945063662445,1.1248858462627345,-0.4675996920730774,1.723037415321803,,,none
1.4548449999999988,-69.5575055839324,15.747830989185763,130.76085908445242,-3.44423573005582,-1.8714127202584467,-0.5460449148479862,0.38503787046022914,-1.144797351619327,-0.11051855478452562,,,none
1.4643709999999999,-75.08138485414293,18.823141353808758,127.27971242803577,6.971362691539428,0.39378125719605217,-2.4049389816361493,0.19142743850672106,-1.2072555552510362,-0.4530477747830576,,,none
1.4738740000000004,-77.16353568845734,18.526255513797448,132.79039333058094,-6.694151230835894,-2.6558822943304277,-1.696113019379375,0.3003753869796718,-0.2634918426510381,1.178136199012466,,,none
1.4833909999999992,-79.69580152792096,17.82372391818911,134.05124322548403,-0.5483479285882231,5.917748054535296,-3.848208088824036,0.4339909751834805,-0.2519778000840554,0.3450634672024558,,,none
1.4928999999999988,-81.03772859443448,16.203230519198502,133.0779751581105,1.3791787537525695,-1.366963651794678,-1.2603351212414335,0.4120126090815753,0.03898091186407024,-0.20292401300493806,,,none
1.5024940000000004,-79.40595991447249,12.3330518569523,141.04832031579934,0.17728151676810056,1.7455471740971196,-2.0525701953463935,0.29400825252018087,0.784346913961313,1.4509102202006265,,,none
1.5118670000000005,-77.96234842268359,8.592425579697384,147.7202498799118,-1.8245291903008063,-2.2209709978760297,-0.27753029926742634,0.20360987915020573,0.7751663827833352,1.237570781270723,,,none
1.5238800000000001,-77.15290475295333,7.066691299886434,147.96736168251337,3.096315166131544,-0.2873307125128966,-0.482113388846383,0.025697816735891534,0.34414553788830693,-0.036402711259891626,,,none
1.5309329999999992,-75.77984756263254,6.3481508043058295,149.37310188894713,1.2802287897314764,-1.7436677888756504,-0.31262256423273993,-0.15931789052801199,0.26431469513957734,0.17129750098672564,,,none
1.540464,-74.98826857879173,6.466778452357456,151.6422895661849,-0.8552019751415869,0.45005606405333,-0.5294222980018385,-0.14896687589076638,0.05639081687344115,0.3624887910629933,,,none
1.5499600000000004,-74.51812658824173,8.330129429013676,150.9178200122642,-1.9854136940150071,0.35691201568620556,-0.8660745652701789,-0.2601608084285908,-0.2832428802847197,-0.23720410492898475,,,none
1.5594640000000002,-74.61219054198834,10.016555889962595,151.1119606541413,-0.19424152419046384,1.3858268738563655,-1.2856555890366166,-0.146284820312915,-0.3048923971992206,-0.039064531522784475,,,none
1.5689399999999996,-74.43176089789026,9.697501759274829,155.85949126513336,-1.394173925801809,1.0702666535155392,-1.1493722412358731,-0.0035193183674989996,0.073074867762482,0.8825885338985858,,,none
1.5784849999999988,-74.58104498556928,8.38650795509018,160.61186211523724,-1.5993662086598999,-1.3851858495690903,-0.5691760827309588,0.12433152182885437,0.23314998501239992,0.9115160680697352,,,none
1.5880080000000003,-75.77241604530424,6.592384898791435,163.83357443375687,1.834942486963171,-0.06305431643452533,-0.846146564753093,0.33431882555438747,0.27064822025454616,0.6240153657923857,,,none
1.597512,-77.12656983958003,4.125494141166157,167.53509272700666,1.693060481572793,-1.2437444752426212,-0.3760260564233035,0.38267229636181704,0.4129043835465393,0.7054471229811659,,,none
1.607037,-78.59479778295118,2.0717934344523883,170.24961260317346,0.8821025163936227,-0.24608487186834369,-0.7659201192713435,0.36634773174821755,0.3479509507589451,0.49672684308333503,,,none
1.618983,-80.69413078294235,1.326970201437253,170.5784300617952,0.06969852814374178,-0.832463827336614,-0.6740611054570832,0.4388384762956697,0.07856357224376306,-2.7604808711319566e-05,,,none
1.6260549999999991,-82.86141138426818,1.6756733626298224,170.53486923727107,-0.3285864670375248,0.7973513620607937,-1.059089035398631,0.41694440766144614,-0.13854110131141384,-0.07965234816328087,,,none
1.6355519999999988,-84.85635492621572,2.528396280327821,172.34032062493188,-1.71648444123488,0.1957030942641129,-1.2045752732601867,0.36999725337187506,-0.22711551091477516,0.3061216454212053,,,none
1.6450639999999996,-86.77385614268103,3.459541775395944,174.8547686655528,-1.695121505937111,0.4086141945002698,-1.2202827437604076,0.3608381550136483,-0.2270714130728338,0.4634350131962083,,,none
1.6546489999999991,-87.76578464931517,3.8995300946122873,177.95146986988274,-0.18836582461494786,0.1377098395322616,-1.345030632620797,0.19255767185108422,-0.0998474579029543,0.5725432274352882,,,none
1.6736179999999994,-90.07812484092179,2.253179461517838,-173.1580823157655,1.0457786304874774,0.031301865727587024,-0.9344639012338357,0.2294515355094588,0.26003860529908573,0.8202376477066737,,,none
1.6926310000000004,-91.57244249662313,-0.5375565690806754,-169.33545724468487,0.8868075025846167,0.1401706059769235,-0.8224047374080931,0.14154384884459137,0.2952564532278339,0.21428986894747687,,,none
1.7021300000000004,-92.34440513831447,-1.2244374276979464,-168.15895133993507,0.19118224884733515,-4.491144089081371,-0.6732327129337974,0.1242278803842375,0.16542563693406476,0.16270998087643326,,,none
1.711634,-90.95946575062494,-0.6035153390727118,-170.62729351444318,-6.100669645182272,-7.612749523251688,2.4659744630934957,-0.24905045109738277,-0.1741300108226124,-0.5703186287414582,,,none
1.7211569999999998,-83.7496176384906,3.507353452117192,-179.82846052487739,-6.553167133202319,4.9719076045142465,-3.7842501338864194,-1.3672648455801346,-0.946874419553562,-1.9833022778140028,,,none
1.7306539999999995,-83.80930048934282,6.048913943048983,-178.8724892420191,1.6138425868189725,0.13309927246176545,-0.49451349764078545,0.019678822887154286,-0.5086309374397189,0.1022208638372365,,,none
1.7403459999999988,-81.72713915031215,4.605880475089768,-168.46593559447103,-1.0842407648312147,-0.6203761035962646,0.1958128139613202,-0.4452481485571163,0.24125122121186396,2.0207762733315184,,,none
1.7496720000000003,-78.11711244039189,2.786317626506773,-166.8757384245543,6.701632957002982,-1.2830849919709348,-2.2853220170372643,-0.7826742724081527,0.20095481814920652,0.247403681815626,,,none
1.7591839999999994,-78.6184304857524,0.22234459142908963,-171.854369911872,6.954245365865556,-0.6992333060031235,0.18139144820796893,0.002005352884945749,0.523239596170214,-1.0764491282598951,,,none
1.7688829999999989,-76.41022432655329,-2.647571274740881,-178.69038784508615,0.787803793296335,-0.2030724929313073,-0.17380030288319212,-0.4908547390450026,0.5341131248116529,-1.4704323650047673,,,none
1.7781939999999992,-75.2494008283637,-4.404246976445611,171.8707473407777,-4.339790651736051,-4.776687176806339,0.11769575881704578,-0.21290447973941964,0.3641602297773515,-1.9997683089178404,,,none
1.7877080000000003,-77.47096841944366,-4.997966063183925,165.6222747260515,-4.73261792051601,4.812201525562819,-0.335408215396673,0.458098390848484,0.03238811766265764,-1.4040580719234896,,,none
1.7972289999999997,-79.82429963869446,-5.11619394037164,165.98200701809284,-4.721417118137546,-0.12349851563039602,-1.8206241307937954,0.4610968578008555,-0.0907407054426066,-0.040711874219215814,,,none
1.8067440000000001,-83.35973940485847,-5.00237919988129,168.06429893713224,-0.6158483436948424,2.578329167142459,0.35697432024200887,0.6823316603122713,-0.17925368943278122,0.3113842800155525,,,none
1.8162520000000004,-82.38373948311329,-4.212673068454232,170.50059367453747,2.4688972214986813,-2.6927143748566107,-2.2386324636332127,-0.22061486291098498,-0.11947445949350492,0.46763417247095623,,,none
1.825766999999999,-84.3442537174862,-3.673126343015487,170.93692417892575,0.7098695143425715,-6.324608800139778,-0.6430073058135622,0.3693523543351932,-0.16910901058320382,0.019884052839379943,,,none
1.8352709999999988,-83.73339819887141,-2.8247443573493807,164.5433002598317,-2.9485492669924684,-2.1523923260835307,0.4264005642281504,-0.15505095090542093,-0.140647557466921,-1.344490159515929,,,none
1.8447750000000003,-80.67652832112242,-2.169982983155829,156.88236411754977,-1.532463671689532,2.8903938175005646,-2.2547733787644906,-0.6212335055852782,0.07593617661680156,-1.5937429293346081,,,none
1.854286,-80.4488887039237,-3.3318861941204467,157.34135384426963,-4.610791279490963,2.9473796181918663,0.18259860093414748,0.047999912482266406,0.23213978199392407,0.04081532112028386,,,none
1.866251,-79.68799670822924,-4.2154681968891285,160.93880744842676,-3.6781510500354595,-0.3563422515996261,-0.78980557535866,-0.07931514955154681,0.21940063208981775,0.7041542011060958,,,none
1.8733190000000004,-80.5157396870627,-4.698542278183938,163.64497752015603,2.3035247555368916,-0.4866285588345995,-1.050878449347122,0.18678610463949988,0.04210749822682762,0.5026222264057444,,,none
1.8827809999999996,-80.61730628695834,-5.438644270429398,166.94628853367556,2.4518295045986043,-3.6177556382937865,-0.7025872444643898,0.05712719304267584,0.13825593638665262,0.6445018709566603,,,none
1.8923369999999995,-80.30884675527584,-5.651253749981303,166.11970891230914,-0.22944813301676747,-4.036349198488113,-0.49038963562808047,-0.049944433554049594,0.05563987154141906,-0.1919219860257671,,,none
1.9018379999999997,-79.86816497367612,-5.097845045849481,160.4647434785425,0.5520696248786394,0.5082882196136703,-0.988814940119227,-0.11581565584256491,-0.08126461227940428,-1.1902923478711467,,,none
1.9113469999999992,-79.33449667014398,-5.074286549640932,157.24164054142403,-1.6187298263395933,0.7833429720643116,-0.9247866078073925,-0.10109988099719935,0.033648937175519596,-0.7129899692307226,,,none
1.9208669999999994,-79.52469275711857,-5.545509483812155,157.37235983252438,-3.622150255069725,1.5870204032707416,-0.5752544965427934,0.07121012788984322,0.07258327860625838,-0.031142364199709758,,,none
1.930368999999999,-80.14069982337294,-5.7867964328967245,157.98599803189595,-2.2931019469323126,-0.9169399703323557,-0.47717813698609723,0.131888429980997,-0.00172445287590413,0.07650588454454495,,,none
1.9398499999999999,-80.67710142107879,-6.285452281619758,160.3177478866036,-1.8139866227912003,-2.0939573374340914,-0.18863512184748996,0.1352910251021937,0.0554510276815482,0.43085071505676203,,,none
1.9493969999999994,-80.63822622985984,-6.859571315900824,162.69142164896653,-0.8227317694901258,-1.0802321175393317,-0.9292961148825936,0.02903558568456689,0.11150774312750787,0.4555154173133046,,,none
1.9589210000000001,-81.07528141395106,-7.428452891982019,163.89859565550583,1.0286072510607047,-0.23992403152821576,-1.2044867012355818,0.11581366637366913,0.08426531603725598,0.2063288449735545,,,none
1.968430999999999,-81.3273025192753,-8.184309368792302,165.16398990980488,1.4193877688576129,-0.4082243577202684,-1.1457244173294747,0.0883958142532755,0.13262882560604994,0.22042674792607725,,,none
1.9779339999999994,-81.16267115771223,-8.936496935337592,165.9686628067414,0.44473732747353634,-1.0236887186964452,-1.1120223809532666,0.005775053321005631,0.15398533652626514,0.13699095545374634,,,none
1.9874379999999991,-81.03063634864515,-9.323879849053798,164.85677623107952,-0.10541501599258753,-1.875372075931213,-0.6208326216340058,-0.005860052918194831,0.08162256623418128,-0.2564237163510834,,,none
