timestamp,roll,pitch,yaw,acc_x,acc_y,acc_z,gyro_x,gyro_y,gyro_z,acc_mag,gyro_mag,markers
0.0,43.48158275527791,23.700524744538296,-32.029826906999496,0.007325891581533814,0.08154544966318068,0.09188338031233352,0.0,0.0,0.0,,,none
0.009506000000016002,43.539903106598516,23.696747301562013,-32.01486751744346,0.028691886679223736,0.07521693551353248,0.08879661002650974,0.0,0.0,0.0,,,none
0.019027000000022554,43.698479820618644,23.663599744128433,-31.93465630993221,0.05369077118615012,0.07138438714136235,0.08941186215751995,0.0,0.0,0.0,,,none
0.028528000000022757,43.901518491405184,23.61175815273744,-31.83759945816953,0.0781287209245325,0.059050678868545425,0.08057940816881692,0.0,0.0,0.0,,,none
0.03799800000001596,44.018614227031826,23.59899542724124,-31.81270029435595,0.07393848530154837,0.0352079726529712,0.10133821772928676,0.0,0.0,0.0,,,none
0.04756600000001754,44.22536060903783,23.601108511341863,-31.766959951899775,0.07128716606407401,0.05360751470943192,0.07412375643593488,0.0,0.0,0.0,,,none
0.05706100000000447,44.39115197410016,23.641775616711545,-31.770908666910817,0.04031791093813554,0.057750885640818116,0.0734606968762011,0.0,0.0,0.0,,,none
0.06657200000000785,44.51017230548855,23.732889074808917,-31.832468066076164,0.025216882915261453,0.048779729336576774,0.06067900803168792,0.0,0.0,0.0,,,none
0.0760840000000087,44.57269665952754,23.85269227477335,-31.94370439663138,0.0005864021355437493,0.012795886814622086,0.07595576586248365,0.0197475667316194,0.014456032227309786,-0.04397434067838422,,,none
0.0855900000000247,44.60330355647832,23.95478830299791,-32.073434316905264,-0.005952531449640686,0.00957867284900576,0.05214885132504474,0.0,0.0,0.0,,,none
0.09511299999999778,44.615853593095665,24.019629927762008,-32.164657710922846,0.013587083775112143,-0.014731681240423905,0.04340783042711828,0.0,0.0,0.0,,,none
0.10461300000000051,44.62372562967304,24.076816268291044,-32.200996898567396,0.015311064969695072,-0.006262754782629966,0.03646379954808465,0.0,0.0,0.0,,,none
0.11404000000001702,44.62803169050205,24.11392400760961,-32.20351424396168,0.023966359735703182,0.017306181847597277,0.024700862625671286,0.0,0.0,0.0,,,none
0.12363200000001484,44.61249335860268,24.12229400231229,-32.216129634360016,0.03382885080036271,0.024420443751387154,0.034841825813409846,0.0,0.0,0.0,,,none
0.13314600000001064,44.58287038901045,24.14409791199905,-32.277051610440594,0.038099900618036225,0.027445770658714893,0.039166306468633075,0.0,0.0,0.0,,,none
0.14266000000000645,44.55502458263491,24.187688666429594,-32.398056396139786,0.04431117232724679,0.031761379504933275,0.04540986856844486,0.0,0.0,0.0,,,none
0.15217100000000983,44.523299798997805,24.23088668595019,-32.53619860803322,0.044324475585264936,0.03159621091482752,0.045269735462751495,0.0,0.0,0.0,,,none
0.16168500000000563,44.51045652746278,24.25345031729466,-32.661210173962886,0.04784028688354544,0.05474409530852418,0.02381995530184275,0.0,0.0,0.0,,,none
0.171196000000009,44.53100864290109,24.248671716004043,-32.76880120099666,0.04618585888856049,0.050073813138229305,0.026048874120765113,0.0,0.0,0.0,,,none
0.18070000000000164,44.602187389489124,24.216009300785657,-32.80595971118184,0.019469451942433973,0.04391466030305474,0.05466161296991524,0.0,0.0,0.0,,,none
0.19021299999999997,44.73161819841541,24.158485271841066,-32.77395785777699,0.010206877006685244,0.048676893625442315,0.058407517664499795,0.0,0.0,0.0,,,none
0.19972800000002167,44.911199869402466,24.0951475245011,-32.694167088116956,0.005303711155478523,0.04677277281119295,0.05541718608324418,0.0,0.0,0.0,,,none
0.2092230000000086,45.12172444770881,24.060331538287762,-32.577860514469265,0.0019520287525201015,0.04041858030522161,0.04759731159577075,0.0,0.0,0.0,,,none
0.2187420000000202,45.327237689453725,24.05477385156531,-32.479913047054794,0.025055775183197126,0.03515831111833766,0.005054934826073385,0.0,0.0,0.0,,,none
0.22824900000000525,45.50021466435789,24.070604066694294,-32.44165406470394,0.005012706851106977,0.026783493377293514,-0.022693526666184453,0.0,0.0,0.0,,,none
0.23776700000001938,45.62485829495078,24.1021244484489,-32.461772732366704,0.03689101183840121,0.007098533180663973,-0.03986425399666969,0.0,0.0,0.0,,,none
0.24726300000000379,45.70491126332049,24.14837476020524,-32.51202206188837,0.02432042357768084,-0.01218827470016981,-0.05769567991371212,0.0,0.0,0.0,,,none
0.25678400000001034,45.747253116527204,24.173287955739326,-32.5781804981056,0.014185555657875264,-0.013840735999013726,-0.057200514557922105,0.0,0.0,0.0,,,none
0.2662960000000112,45.762774214499046,24.136170919428988,-32.58080451056385,0.01790842260146292,-0.012781914562139948,-0.0608366369338967,0.0,0.0,0.0,,,none
0.27580199999999877,45.79127265134816,24.095263508485473,-32.46259238622746,0.010903820378618367,-0.004229775333338642,-0.04634839457906784,0.0,0.0,0.0,,,none
0.2853139999999996,45.85224312512301,24.082201371532577,-32.2820190076173,0.004382592053916906,0.023251498054724862,-0.019494739301529368,0.0,0.0,0.0,,,none
0.2948310000000163,45.92152559832978,24.055823661991905,-32.12329001866195,0.004912340377461661,0.02629171412176711,-0.02199869187059887,0.0,0.0,0.0,,,none
0.3043300000000215,45.99832726065312,24.033156938504057,-32.017987927323645,0.00472231209839684,0.025361816622660977,-0.021175226074354767,0.0,0.0,0.0,,,none
0.31383500000001163,46.07422722621442,24.06161699656627,-31.938782829713734,0.028179152408587586,0.018599096166220585,-0.03865817289879718,0.0,0.0,0.0,,,none
0.32335700000001566,46.12447302441645,24.100460667103253,-31.92855781877333,0.04061193089399205,0.012304737473807493,-0.04613057990989246,0.0,0.0,0.0,,,none
0.33287200000000894,46.13242709882148,24.108388562254724,-31.98259602681929,0.05739978767350816,-0.008062771228210096,-0.04851286524203772,0.0,0.0,0.0,,,none
0.34237200000001167,46.124268831868,24.117746274183506,-32.05103745569712,0.03445415930724439,-0.017065515547573067,-0.08110369814935944,0.0,0.0,0.0,,,none
0.35187900000002514,46.10884983189,24.11894818986841,-32.11558433765132,0.015817407458091085,-0.00701010922130197,-0.07998723847578758,0.0,0.0,0.0,,,none
0.3709190000000149,46.044480104985915,24.0489345214414,-32.14613584373168,-0.014768315614386606,0.017738180309373023,-0.0491703322057494,0.0,0.0,0.0,,,none
0.3804280000000233,46.0175664561201,24.042141733740355,-32.122559424367545,-0.018375930131475777,0.04588772774109585,-0.01291573065501649,0.0,0.0,0.0,,,none
0.38994400000001406,45.98521767904767,24.06006116497224,-32.09191401795669,-0.02749446944342263,0.05014472955037648,-0.007200455009956336,0.0,0.0,0.0,,,none
0.39944200000002184,45.943928737991406,24.110922351639882,-32.07863340989825,-0.02502098965295586,0.04170897105463202,-0.003975174526068786,0.0,0.0,0.0,,,none
0.4089480000000094,45.896392990752396,24.20541620966326,-32.09311705239018,-0.016709913788362386,0.03531095776389405,-0.007556980070930935,0.0,0.0,0.0,,,none
0.4184770000000242,45.832047904842874,24.31776049589226,-32.143203297615486,0.0,0.0,0.0,0.0,0.0,0.0,,,none
0.4278950000000066,45.74947566290862,24.419650682411405,-32.21884676696503,0.0,0.0,0.0,0.0,0.0,0.0,,,none
0.43749000000002525,45.666401330078905,24.508345704399225,-32.24921955403236,0.0,0.0,0.0,0.0,0.0,0.0,,,none
0.44698999999999955,45.59018170055963,24.574859481686477,-32.262106688812935,0.0,0.0,0.0,0.0,0.0,0.0,,,none
0.45650100000000293,45.5317741080891,24.608785251709694,-32.26012969063423,0.0,0.0,0.0,0.0,0.0,0.0,,,none
0.4660220000000095,45.49553953922399,24.627292699196843,-32.226743411258006,-0.025868198136939906,0.016306941194802842,0.014017818345613088,0.0,0.0,0.0,,,none
0.4755320000000154,45.47678276950097,24.652356386037997,-32.19505599410418,-0.027800804455311263,0.01701587125463923,0.05723067250766401,0.0,0.0,0.0,,,none
0.48503500000001054,45.45822932332383,24.679010629676224,-32.16957548232862,-0.031103057679680066,0.011158289561166601,0.0720725122385838,0.0,0.0,0.0,,,none
0.49453600000001074,45.41659593258798,24.704623376388856,-32.16589429388868,-0.02928264869756405,-0.020952455553181044,0.08878371288949005,0.0,0.0,0.0,,,none
0.5040630000000021,45.36413710672336,24.734533403510486,-32.2044952142253,-0.03482885958219082,-0.054011503471008346,0.07017711999298427,0.0,0.0,0.0,,,none
0.513576999999998,45.30363761145318,24.747505334781483,-32.24908872077504,-0.010542027916259782,-0.0613546537086742,0.05168228820177492,0.0,0.0,0.0,,,none
0.5230800000000215,45.29410784681721,24.724543206940616,-32.23220647179326,0.03964380488486386,-0.024996168566726217,-0.02158036611973446,0.0,0.0,0.0,,,none
0.5325910000000249,45.33664270494694,24.62259522465372,-32.1412172695745,0.08930822188938242,0.00035222018789577423,-0.08655078561442062,0.0,0.0,0.0,,,none
0.5420200000000079,45.35691774838818,24.5549489838144,-31.98143129600269,0.15144802597986567,0.11582874009302038,-0.2244397028402345,0.0,0.0,0.0,,,none
0.5515380000000221,45.50037715940002,24.434461000068307,-31.745350339755593,0.19928615809874725,0.11344658172458963,-0.2671837760084519,0.0,0.0,0.0,,,none
0.5610420000000147,45.705368882187585,24.354717504186244,-31.434181334613477,0.27140590320801183,0.15001090912284237,-0.49752681085131467,0.0,0.0,0.0,,,none
0.5703770000000077,46.17385160797528,24.311254006845402,-31.13967863182799,0.18436453245627293,0.4745431840677729,-0.930933955743118,0.06858285994329102,-0.0517479352897015,-0.00499473467195558,,,none
0.5800570000000107,47.15235202104664,24.24911554678131,-31.0732086315367,0.18316926118335153,0.06619546585499048,-0.7865471180785316,0.14661668213505988,-0.10275437466490812,-0.09461320056438802,,,none
0.589572000000004,48.33862847844259,24.375968016046144,-31.139364070331034,0.07629315051498821,0.05190222246830196,-0.9395303803829126,0.19855012286140117,-0.08992120191337977,-0.13082292914774432,,,none
0.598887000000019,49.56022085660625,24.5987746002224,-31.33912494693965,-0.08664279041792756,-0.04860378757224649,-1.0362571439271382,0.21354302459356517,-0.077117035632727,-0.16213194469823744,,,none
0.6084900000000175,50.75290260724926,24.775400369527368,-31.666588095522314,-0.1100477206360992,-0.12023534741428801,-1.1327238302791685,0.20358455141907714,-0.08303240396705902,-0.18951360889147453,,,none
0.6179210000000239,51.953556784632234,24.9484011469342,-31.826813133499787,-0.14821685025037692,-0.24512499301263968,-1.0028355709293808,0.20386100395692122,-0.08501742916368348,-0.16807977958069548,,,none
0.6274270000000115,52.74640976861411,25.09692067631967,-31.83055359033469,-0.19255336728374317,-0.21866015372246997,-0.9853065288636963,0.13798130908241904,-0.05041268638954971,-0.09971342719867222,,,none
0.6370229999999992,53.092178046457185,25.109872427028943,-31.838528956856447,-0.2005820122547081,-0.12974097752537564,-1.2027861369419988,0.05466169126668637,-0.03082160865004279,-0.05145470821165123,,,none
0.6464560000000006,53.34851300852632,25.046800817476303,-31.750438958250896,-0.1263313566445055,-0.24323879291955508,-1.0114791144500066,0.03288831365129629,-0.03520442787528924,-0.021984764125955323,,,none
0.6559720000000198,53.19912538788628,25.01511156191209,-31.598593851842367,-0.10656232138561478,-0.0943880470418274,-1.0811935743760328,0.0,0.0,0.0,,,none
0.6654790000000048,52.88319190632697,24.986289752941865,-31.575981824545202,-0.05206572680421857,-0.027569648582818313,-1.012967107563592,-0.05188223456048846,0.02507340738438511,0.013868074433970968,,,none
0.6751860000000249,52.39392917513294,25.023029200295408,-31.725482935344267,0.014274546454048638,-0.0629289674779335,-0.875005975410193,-0.07175331759695475,0.05279966834398368,-0.0034415104470933325,,,none
0.6846820000000093,51.75211013792117,25.199866803914542,-31.945809624576746,0.006695612171218325,0.028267654987432896,-0.8840658926811207,-0.08024167058299671,0.09141026996570054,-0.0037231943344745028,,,none
0.6941960000000051,51.05019424741308,25.43311847893708,-32.23012586048758,-0.017946800128764373,0.0773321896183065,-0.939854343854005,-0.08291220991423337,0.10699261636716223,-0.014330016339720711,,,none
0.7036990000000003,50.49160062284978,25.6439379313591,-32.523190904258165,0.012258950249612812,0.02782360896522843,-0.9720268288769744,-0.06269363817334803,0.08964021244262389,-0.027333662532276898,,,none
0.7132060000000138,50.181893240721934,25.832466059794776,-32.693012638350346,0.043418750669977635,0.012489127177896396,-0.9587873260050813,-0.026741727194080793,0.06188797528028322,-0.017999628088975057,,,none
0.7225400000000093,50.036483396086616,25.930479267372625,-32.7394062240114,0.059160598406415715,0.028877393252980436,-0.9678923577334395,0.0,0.0,0.0,,,none
0.7320390000000145,50.02823827390616,25.895085506680836,-32.687262813172936,0.08549592555868026,0.010748875710876222,-0.9873834815806506,0.0,0.0,0.0,,,none
0.751244000000014,50.31502719705517,25.743566003000627,-32.52863925582132,0.0010494177244665733,0.036996058542334204,-0.9536426613058655,0.0,0.0,0.0,,,none
0.7607570000000123,50.45491845712605,25.71562076502753,-32.61894861969008,-0.04685018976080687,0.011083399465321008,-0.9376221363979867,0.018266827773177587,-0.01829224570019453,-0.049827314569656424,,,none
0.7796040000000062,50.55900495795434,25.99460214747343,-32.95414442025941,-0.09877720882637928,-0.02742657976104171,-0.9708709266225917,0.023975369836423076,0.031549347509918495,-0.05929388679554486,,,none
0.7891079999999988,50.497339910245614,26.21242351790713,-33.128759787143004,-0.07527968767708577,-0.059590816237539077,-0.9979915113342679,0.014441350520417222,0.04261911181908821,-0.055322164515372314,,,none
0.7986160000000098,50.363431940018,26.38855011942475,-33.262266431554764,-0.030040918431032102,-0.09615136410218868,-1.0296025725752687,-0.0008513035099832922,0.04266654277447709,-0.0399070986886061,,,none
0.8081260000000157,50.211580960915114,26.491957336895116,-33.31306821333763,-0.0004992939332792578,-0.07429408340082506,-1.034557870650665,0.0,0.0,0.0,,,none
0.8176490000000172,50.04393363121236,26.482063125401595,-33.316782276497904,0.014635161062237957,-0.04285435067965217,-1.001151420211285,0.0,0.0,0.0,,,none
0.8273340000000076,49.870800100594806,26.390706322387473,-33.31113433664559,0.01977222570587502,-0.011633125884484173,-0.9644263756414257,0.0,0.0,0.0,,,none
0.8368450000000109,49.733141688282366,26.313154472483703,-33.28690343256786,0.0010248470547839592,0.031216862778802982,-0.9119869738748377,0.0,0.0,0.0,,,none
0.8463680000000124,49.61915907887984,26.299636279452713,-33.301939586042195,-0.018878060306370407,0.06842520320810082,-0.8905832649949716,0.0,0.0,0.0,,,none
0.8558840000000032,49.52812135203931,26.368073862918607,-33.395698141521166,-0.017411367431946368,0.044423525398754264,-0.8920334137863859,0.0,0.0,0.0,,,none
0.8653710000000103,49.4703039838478,26.526349179499324,-33.50206868409053,-0.01107899434768297,0.011021189698549545,-0.9243312788332019,0.008775390078729989,0.03216475917077835,-0.04894989166580251,,,none
0.8842190000000016,49.41430648696177,26.85583578162148,-33.67729588493057,0.0009107952866038118,-0.0594118381576547,-1.0043695033058073,0.011766148885958238,0.02537800252822099,-0.05210324840535265,,,none
0.9032410000000084,49.35514567479677,26.882533053709718,-33.618818061805655,-0.033892332323827996,-0.058312212260092935,-0.9986345118011757,0.0,0.0,0.0,,,none
0.9129259999999988,49.28271618141056,26.79290130231295,-33.54438397845764,-0.05603921669279998,-0.03718460058002666,-0.9599521796156237,0.0,0.0,0.0,,,none
0.9224480000000028,49.16574817242873,26.707250311753143,-33.46584762298607,-0.06429045233899666,-0.01791953410561687,-0.9231742602454235,0.0,0.0,0.0,,,none
0.9319540000000188,49.00963326144752,26.687164218160618,-33.39393023272054,-0.07047482820606957,-0.03272145186190617,-0.8483291594366377,0.0,0.0,0.0,,,none
0.9509690000000148,46.87942199686354,18.89899606706598,-23.820699254165127,-1.4567234162867446,-2.121666844356068,4.550532905959338,-0.026871425136928303,-0.5168970141632363,1.7822596848432404,,,none
0.9603050000000053,43.62644467789712,18.470930132447382,-21.899341372225706,3.4683761791569503,4.918890450529722,-2.7053845211623986,-0.6021754453373923,0.15990019056160842,0.5588018644612218,,,none
0.9699860000000058,27.771323257886415,18.289014236576666,-26.344025321965407,-1.5732022414632796,1.7621336442291045,4.579482597815475,-2.7644629744677127,1.1962164035575573,0.1030843544750606,,,none
0.9793999999999983,19.241920110291314,19.33411347375344,-33.450581079231,0.6121904828241655,0.25189182865553306,-6.235470106050997,-1.2966005675417094,0.9883834394373955,-0.8453437136176022,,,none
0.9890140000000258,18.262642039832436,21.80504140650797,-39.98010464412926,3.206378865656884,1.840461471118513,2.3067863985166115,0.14802554648952224,0.5067647156466312,-1.2699493276099048,,,none
1.0009390000000167,8.844623266986348,20.683814543342905,-45.89512808578443,-1.1727580624519545,-0.29615272724578906,-2.5483613017182476,-1.441520156215398,1.0303491156922797,-0.5454744189973566,,,none
1.0079819999999984,9.814481013930662,17.355542195541627,-47.28743338173328,2.368028713237097,-2.656104325691375,-4.87105677610751,-0.35629448623930876,-0.5924970559513395,-0.4080372140758163,,,none
1.0176010000000133,13.152042207602875,17.59308699293742,-43.969036786730975,1.1449270975819272,-0.23966033552251081,4.228652706280152,0.4808944015195646,-0.42120420839446204,0.40531768412882857,,,none
1.0270120000000134,12.084968044951797,15.497982249311033,-38.85084276267287,-0.35330954342160265,0.1560490568510262,-5.324217047686604,-0.4310282791562657,-0.1798208383223583,1.050561221649841,,,none
1.0366500000000087,15.74553077192736,10.798233828561456,-33.70176845017401,-0.28578233678261383,0.30141193991733695,0.004689495400107897,0.020868129970319376,-1.18108674642593,0.8261858535971992,,,none
1.0461310000000026,18.461765992349076,7.7292067366479476,-29.99371254011682,0.1728567338133766,0.9249362115195391,2.104357266353462,0.13385776869247315,-0.8049773075445007,0.5975586629785582,,,none
1.0555390000000102,16.781278583914457,7.161475961355806,-29.191615706498332,-1.7769205942611939,0.9650369290218809,-2.8202158708228975,-0.34642277727099524,0.06526936819356825,0.15999620578835752,,,none
1.0651560000000018,17.417633653840777,6.098136891580296,-31.717386290157403,-1.0668179499357031,0.6710878258923391,-0.2696351871752192,0.0017251358531983954,-0.24776466522560203,-0.5705182323976921,,,none
1.0746760000000108,16.364085256032624,5.437769536594603,-36.128688643467086,0.9389928690888023,-0.8119580772588527,0.23179934791369344,-0.24807960132797702,0.006608827608902551,-0.932535598468697,,,none
1.0840770000000077,13.279820359497862,6.305483012259348,-40.08523285489945,-0.5223716640333702,-0.937432637245917,-1.9978671556396508,-0.37760551381402135,0.5149705537303056,-0.7862832581564632,,,none
1.0935060000000192,11.728761985677625,5.099635841810829,-42.45579161623118,0.28534253536393617,-1.1267139049898713,-1.4171791584532893,-0.3916544426832132,0.021458785947258027,-0.4969973362081653,,,none
1.1031980000000203,9.300853607405804,2.0681353411086536,-42.247863558066506,0.5870705231781694,-1.60041877677626,0.18269487229289283,-0.7672771808851515,-0.12333395476672013,0.02109103956674876,,,none
1.1149810000000002,6.243326576284535,0.019744720454849457,-39.16696975665243,0.24150207103884902,-0.6564468804011387,-1.316562841452542,-0.7317423530527304,0.08738603275041147,0.5952992515718067,,,none
1.1222199999999987,3.445622846178827,-1.7921521889085958,-34.63498848479329,-0.05024844865840983,0.7262020945471613,-0.09462080192341786,-0.6659774311409555,0.0458399559981325,0.8830552952557721,,,none
1.1315810000000113,-0.33804686632349623,-3.8643106483787704,-30.520490392565108,-0.3715754436429623,1.0724488229159197,-1.0221599652399236,-0.8612755920427317,0.057241392443917606,0.7667947471894048,,,none
1.141081000000014,-3.5289519515274854,-4.914383238680555,-28.211292675535528,-0.3432284628386005,0.8721196735974435,-1.1014326675363593,-0.6585279669351978,0.1284056864077856,0.3849377458591345,,,none
1.1505820000000142,-5.512696125492089,-5.382181222753753,-28.41339232567424,-0.5057705718831192,1.3959330667645742,-1.191806391681931,-0.3929066183305834,0.1045715847632737,-0.11193094309207835,,,none
1.162621999999999,-7.6435090695415795,-7.166001825858431,-30.666541152494997,0.04739791610834891,0.5421529171907441,-1.3803313230324599,-0.5449627528845069,-0.10274249596373962,-0.5451393224766145,,,none
1.1696030000000235,-8.961467111659593,-9.456347460809942,-33.63121124165263,0.7152519040826476,-0.3906633135517556,-0.8921170621615993,-0.4644647759643557,-0.2507951775995001,-0.7032279714664025,,,none
1.1791050000000212,-9.780867023856798,-11.259013801784524,-35.90653116566969,0.41640454379592795,-0.4611664179309949,-0.8474350859932419,-0.3377802869879334,-0.20565434553563527,-0.5648995131404533,,,none
1.1983540000000232,-12.460527893873314,-15.442079936686678,-34.175958919474404,0.2735100705164889,-0.5382563541210207,-0.2994459066042028,-0.4561418217485493,-0.1640621909101472,0.2814409283470681,,,none
1.2078460000000177,-14.755836401430392,-16.145610721760892,-30.660418758802837,-0.12447120834781453,0.08850420458037012,-0.6411374613777522,-0.44904754211209297,0.11762528468830567,0.5511575253900018,,,none
1.217158000000012,-17.506178276325027,-16.46834979962598,-26.734837636454213,-0.4355481692550927,0.3061406557397895,-1.2118340163020964,-0.49483110376932554,0.19688867306577043,0.6205978876878648,,,none
1.226663000000002,-19.98847357962703,-17.0756596691625,-23.560678588000275,-0.3282130685461187,0.6809461675974156,-0.9852170191510373,-0.4825638698108868,0.09189058306802389,0.4801589845334642,,,none
1.236167000000023,-22.2171626697179,-17.73615991102807,-22.20952098980097,-0.26785987873789724,0.5975086065208602,-1.1349964668798258,-0.4438151399656106,0.043225264989498975,0.10987911428895189,,,none
1.245775000000009,-24.02944589201853,-19.119763239755603,-22.608657779450333,-0.23597170665017234,0.28227152207073775,-1.3467700638262778,-0.423694738492611,-0.12566937745788465,-0.2382799549135138,,,none
1.25764700000002,-25.47817131541149,-21.70614308285695,-23.84562567561748,0.14011016065139734,0.07023844395246864,-0.9413506671426634,-0.4532198994204114,-0.3698370454838457,-0.40702699393568975,,,none
1.2648810000000026,-26.913240576595186,-24.490107110494527,-25.119145375317267,0.2759063133600456,-0.2530896374984907,-0.607813419669961,-0.47052089183813567,-0.3991324512620513,-0.4330423551609874,,,none
1.2744020000000091,-28.594249315472215,-26.747532593658686,-25.45788068640921,0.07891527499365796,-0.3649506402607094,-0.6845870464157104,-0.46685703411917984,-0.2802344687769795,-0.2720683340142628,,,none
1.28391000000002,-31.08455812090366,-28.438690316155128,-23.99883501025911,0.0741267562463042,-0.18157885974732837,-0.5119804942785687,-0.5428186612393905,-0.12385794059761958,0.012429345963125085,,,none
1.2933980000000247,-34.420581202124076,-29.017217855661052,-21.11993239096581,0.12283045992403178,0.029316735824559494,-0.5805468035375222,-0.5855421358598554,0.11692131957069564,0.2242931950176769,,,none
1.3027350000000126,-38.03525154259246,-28.47822969661122,-17.771442341833968,-0.050418593406667135,0.18732486562945522,-1.042677432409004,-0.5627223096450885,0.3124518529233751,0.30249581696423256,,,none
1.312338000000011,-41.434266576631416,-27.891355681851074,-14.57429544285743,-0.13083267228275716,0.3301837394201578,-1.3289727259056274,-0.5436151931578156,0.2795096279523501,0.30354875439527906,,,none
1.3243100000000254,-44.39296191105759,-27.991977755641756,-12.167150770186167,-0.09654665391696736,0.44923710243935866,-1.3125124298557622,-0.5139394903736991,0.10083147339335956,0.1801286945495677,,,none
1.3313510000000122,-46.71399803645218,-29.00817003059093,-10.990369678512232,-0.14149163026683068,0.24928107389907062,-1.395569171764735,-0.4407616476672207,-0.11813833026461432,-0.025736712608318005,,,none
1.3408530000000098,-48.54491315164443,-31.13293636551688,-10.574867817124613,-0.10870157602901033,0.14853746285176442,-1.2552570733485482,-0.39058259121636535,-0.3593809668708327,-0.14610331549465955,,,none
1.3504660000000115,-50.30821891568466,-33.90832733971232,-10.161972635550297,0.02565052301255363,0.01411478070759712,-0.8643243122351832,-0.3914649957916734,-0.4942580395351633,-0.17456210605289607,,,none
1.3599780000000123,-52.16550650774731,-36.306542928805065,-9.468203163677444,0.034434154226201046,-0.07127888248660023,-0.5913390539653768,-0.38036484689727174,-0.4225366915476368,-0.1462793908160084,,,none
1.3695010000000138,-54.58398405542065,-37.71587589333543,-7.977013783740283,-0.001987896710202079,-0.0924199484397244,-0.5427604974902323,-0.42442764102435654,-0.22143609461906716,-0.05288408959777513,,,none
1.3790070000000014,-57.82695366243204,-37.96359438331054,-5.370736214432154,0.07449683742360444,-0.014218936839814634,-0.533303274602219,-0.5150638778068956,0.009061233468734482,0.06985808829073135,,,none
1.3885350000000187,-61.410326467653256,-37.09871946627141,-2.347890400720557,0.10166682170738575,0.17623618701632163,-0.7483417059055605,-0.5563275495632843,0.2100355548549369,0.12992163714274785,,,none
1.3979220000000225,-64.97594165524346,-35.76849746892644,0.5363779575449088,-0.022719406643288496,0.16345158157963718,-1.1510944536016823,-0.5704386948571248,0.274458597760788,0.12085219846423641,,,none
1.407432,-68.3667496926126,-34.89310677098135,3.214067009312666,-0.12205359389340538,0.1845421051682593,-1.3789955116580763,-0.5595313619147162,0.1559976782923183,0.10397188602918758,,,none
1.4194070000000067,-71.44205238345391,-35.01086071213621,5.48693882259605,-0.15965796714202626,0.2019321406741108,-1.4409121970940468,-0.5012330435996913,-0.063114901577769,0.04442986627471824,,,none
1.4264560000000017,-74.19320410728068,-36.20094427104888,7.30068261538495,-0.17279379033588654,0.05375736931221536,-1.3925445592399173,-0.4176466930089889,-0.287966058882864,-0.026004603373421673,,,none
1.4359680000000026,-76.86238614658626,-38.11998566252497,9.117761076060518,-0.08234555322123167,0.032193090573317956,-1.1378416956748616,-0.3652596768066272,-0.44232580951986666,-0.03162509110907803,,,none
1.4550959999999975,-82.51827389571685,-41.11959239239109,13.340730961556234,0.07948621293774993,0.08486785298512133,-0.5646772085735043,-0.37898760397526726,-0.30967696623638413,-0.011316089218730525,,,none
1.4645980000000236,-85.54575126726034,-41.032750983191846,15.733008490705075,-0.294862548456652,-0.11293410208666553,0.21560814427062247,-0.44628620008350756,-0.09926974869790446,0.0108657342523896,,,none
1.4741020000000162,-78.15536032502966,-38.38768918164417,14.978538491973044,-0.2174787719183701,1.7949801642724557,9.49279553733645,0.9562845945479996,0.8130386203684037,0.7584060417470917,,,none
1.4834340000000168,-54.56362778943852,-25.91368968431155,10.204475853677302,6.405803972134358,1.5725117672841764,1.6563409161701474,3.3744470499743926,3.2683391219456666,1.6085294449896137,,,none
1.4930340000000228,-43.74334470250253,-22.77535918628061,24.325936744279794,1.0305556831679576,0.3770186595490093,-2.606526120298712,1.710136140840911,1.1845965274479902,3.7743189023699433,,,none
1.5049309999999991,-44.89173427959661,-34.42137889913194,44.23366867196185,-7.1435349860048,2.01841199764412,1.8913115994682426,1.1525224025888672,-2.0507276070954235,3.8621757784603923,,,none
1.5120530000000088,-47.36783684379942,-45.41712486140251,53.180143010967086,1.218868557071958,-1.0421457923138207,-7.155844881735702,1.4042706853259321,-1.7402104949863895,1.4670446772726937,,,none
1.521568000000002,-29.875426733690638,-56.7269194751098,44.80631042653866,-5.600067689535455,0.1358347587242373,-5.49092033186282,3.1361341293924894,0.1882902944690186,1.0630651926798915,,,none
1.5309480000000235,8.706508342616898,-59.652495685863514,12.185498777989574,-5.572339393152167,2.3657282716605628,-0.41475058134938225,3.794331064533166,1.4272763435773657,0.10309163160627528,,,none
1.5501930000000073,43.1701470082666,-33.57040796198319,-21.103901045231048,1.836766200337497,-3.316650827012017,3.7387941918320213,2.2729871117864007,2.1679607977512365,-0.41484432279021444,,,none
1.5619939999999986,44.93062304927513,-30.48285994541509,-27.01415514843216,8.129729952743714,-1.3097313973934466,0.6353975071747918,0.5249820557127687,0.44277250876806945,-0.9962907875380275,,,none
1.5690390000000036,45.08517249920298,-36.90167645294225,-29.47782273106782,5.0206358997907365,-4.623385305622485,1.2098733860089357,-0.5857935393428623,-1.1446963117131705,-0.4755256074291707,,,none
1.5787440000000004,48.33828575418074,-49.33283491533037,-28.378168722140497,-0.8470225248772061,-0.7826300007521756,3.2209319715933367,-0.7870239041125482,-2.4091372598549485,0.6657599848473433,,,none
1.5880590000000154,43.63598271095802,-62.0099868489056,-24.583289309229446,-6.579155061070569,1.9699298167980759,-1.8720160797331815,-1.6075795579828294,-2.034162156452883,-0.021941661644271058,,,none
1.597656999999998,36.6972532631142,-68.79991802382143,-21.369631730265713,-1.8580472683701292,3.918864975720439,-7.8596913490676705,-1.0627496449269986,-1.0250405225302184,-0.6211292487295105,,,none
1.6070910000000254,41.0260732590897,-67.56640650886975,-26.705002916662856,-3.426385652441044,4.192411992986348,-3.8406075732856912,0.3944205819058323,0.09454077206338857,-0.2637078669585856,,,none
1.6166670000000067,48.111083452237075,-59.691332314727404,-34.86556052451568,0.7304230774182738,1.9725976969747405,-2.4591830136663098,1.3473272980979707,1.0308482068339977,-0.3594585429183669,,,none
1.626293000000004,57.24581453142952,-48.59740502850876,-41.82419042200902,-0.25389524147561604,-0.11229315026573052,3.248174545353887,2.215494691289747,1.0728264522010211,0.09644235481529684,,,none
1.6356090000000165,63.87069788825196,-39.28458914236261,-49.1723250230978,5.291689578199268,-2.7561468504152886,2.1258021340925906,1.9984194443289145,0.6238328157415157,-0.5460436598662745,,,none
1.647750000000002,70.560173004059,-35.706013071840204,-56.12324565858197,0.461068078547244,-2.8360980788632544,2.791591989201508,1.2135272249702684,-0.41052500646461987,-0.575053975568052,,,none
1.654640999999998,75.0729755558263,-36.4010952193493,-62.185210446883154,2.1600259200085623,-1.1848802104256266,-1.123821303963919,0.2548810518666657,-0.6985381993879161,-0.6815980342703875,,,none
1.6641390000000058,83.61433208555226,-39.328532559708385,-67.0899995349085,-2.906875225578801,1.0599938925928925,-1.252852376948089,0.04936313114817792,-1.4702361925447012,0.0691121615660617,,,none
1.6738380000000177,86.37179775874534,-41.87326483506157,-68.29559367063653,-7.848149611535423,-0.6935284112114786,5.350879190492535,-0.31233347173441867,-0.5812238645648307,0.11805024495459022,,,none
1.6857860000000073,64.90292947581926,-40.64432900828373,-55.03225305844352,4.143708972041575,-1.3927750484228325,4.223911738298975,-1.315779802864658,2.9520837738690524,-0.19676159687167438,,,none
1.6926810000000216,53.29714900388548,-39.09740127349049,-49.094933102500896,5.694254818510539,1.6900834592361593,-0.25097830383211134,-0.8522391103406166,1.5954629684919888,-0.30342962068243784,,,none
1.702370000000002,56.519459305041416,-40.250287676932736,-58.78139579739208,1.5722110279890211,-1.0607923496464118,3.7381507816387325,0.10544738938753685,-0.5376383472742625,-1.5273247728730701,,,none
1.7117890000000102,59.52671226899965,-38.154498101074594,-65.35288141514418,0.44717439396565173,0.020898516258299266,-1.2856391041108015,0.5902988824142776,-0.2128154918473935,-1.046934517338973,,,none
1.7212220000000116,65.22459366272082,-36.90448656443266,-69.10538947159054,-1.1263058847173153,3.634489566027837,-3.136657921366409,0.584560373411047,-0.7341805457457294,-0.17949058336267887,,,none
1.730797000000024,68.37275766369937,-37.83977313568219,-70.87766473195232,-2.980799548724705,1.563043110522533,-3.5329329795557713,-0.002429298897072017,-0.5347616106068622,-0.06693131788656144,,,none
1.740222000000017,67.32937751003215,-38.01214610990577,-64.68600458539787,-1.2277716235284266,1.1433822082160545,-0.8889850179726932,-0.0944184031134099,0.13925488761946792,1.053851547668855,,,none
1.7497340000000179,61.1845087427878,-37.80206755842179,-55.47576030797676,0.32583385685049665,-1.9584331565812765,-0.3835401750917039,-0.4471457405904883,0.8626997970635247,1.0966447980337128,,,none
1.7592510000000061,60.481811306258116,-39.859129313851724,-49.214789099025346,3.769232696924299,-0.8472238772774713,0.19144283142679128,-0.3929752261297416,-0.16510909834163914,1.1572147050270651,,,none
1.7689420000000098,62.23253881177199,-43.08113503568282,-47.371728806374605,0.6681282252588061,-1.849734580288772,2.1397516148095703,-0.3043715267820297,-0.6266968938590978,0.5089534175188075,,,none
1.778457000000003,64.50273557492147,-45.316403365873796,-48.87214623092822,1.1265964026548325,-0.7890175246751844,1.31033254027198,-0.11318675302426247,-0.5420131022390804,-0.09461008915955875,,,none
1.7879489999999976,62.19726790565177,-45.30745505233333,-50.05853304080444,-3.8289812811407806,-1.635914203062588,5.029817104464433,-0.2107396162214321,0.2470807753986608,-0.6594734956479965,,,none
1.7972890000000064,53.9569428418593,-43.67806622368732,-49.531787247580915,5.0265287457325805,0.59865104552911,-3.0171920475909317,-0.5143836893692093,1.107693689989372,-1.1209110639067443,,,none
1.809252000000015,54.12019029154455,-44.90758381674437,-53.135212632740895,-1.1854110172447414,1.3108927491650109,-0.4241837162383799,-0.1771551915757835,-0.17284373547539328,-0.7928458575009409,,,none
1.8164980000000241,55.793980438263425,-47.74937607370016,-58.461260517527805,-0.519111633194735,1.1336739613917433,0.11755233794755314,-0.3380249123191025,-0.5133386152592693,-0.9551516124224009,,,none
1.8259180000000015,53.61684822799713,-48.92332998519753,-58.36575369300771,0.5631378481933129,0.6912075653329288,-1.69692594778305,-0.3525927313804567,0.1223288942167055,-0.39842084494818786,,,none
1.8353330000000199,51.432729547269545,-49.82571923824029,-54.15234135016626,-0.18580083337729444,1.8430243616910043,-1.8184824140970843,-0.3086408813230867,0.13556840313660753,0.45270736936160527,,,none
1.844867000000022,50.000887496335324,-52.42422545584501,-50.62786031866266,0.25805288943639365,0.8095710876703913,-0.827156836065654,-0.5214685281963068,-0.17671422475156168,0.41233078477710655,,,none
1.8545360000000244,48.51639339565599,-54.921427067020936,-46.0991550394423,-1.4976797492889629,-0.07966136754810008,1.3608720565463368,-0.49007394507986346,-0.20227362068718044,0.5981598621453781,,,none
1.8733760000000075,40.66933174955438,-55.119949515302245,-36.947373613270216,4.600612001085478,-0.8704351576459899,-0.19156746647690634,-0.32081005687184955,0.34602686439194397,-0.08149284643814558,,,none
1.8828890000000058,42.74726212497316,-55.466228745390325,-37.300739984446935,2.5672048310558075,-0.37988811198973543,0.13057365886735878,0.14767655187962236,-0.19779542012535634,0.19426108513341572,,,none
1.8925580000000082,47.58373468427135,-56.17464784672449,-40.76053407202014,-0.8217847343928869,0.10876379718362753,1.0517427536520152,0.33467344723400116,-0.4515160376267504,0.027928776898216094,,,none
1.9018660000000125,50.132791403628225,-55.3094148470545,-44.244676839421686,-2.0029503655997885,-0.28370900351807005,0.15422950534410615,0.32896172577281674,-0.06509520280682721,-0.36096765220733057,,,none
1.9114170000000001,51.358231442026174,-53.13429247110615,-46.108036510614504,0.520494781571612,0.19913935644640626,-1.1064331715940974,0.409418079140331,0.20668741102213634,-0.2458747730982137,,,none
1.9209260000000086,51.92503678241726,-51.201121693450794,-47.20805548082449,-0.7361682165762334,0.3105704587415703,-1.1252409926753968,0.3287966589564883,0.21598233710761172,-0.1880619575709084,,,none
1.9304440000000227,51.79323016559331,-50.42771127378305,-47.79895511228826,0.537155904914835,-0.25430730762833176,-1.2116015053861893,0.10265177871275119,0.1171954362895145,-0.19074772549996302,,,none
1.9401380000000188,50.58151832709944,-50.17515774980264,-45.94209913690522,-0.6230621623481908,-0.28505723944436767,-0.1863573188225042,-0.06930620401118007,0.14751569956038277,0.13188796531272354,,,none
1.9496660000000077,47.39266731239912,-50.05092653779195,-42.18686708770923,-0.7904995345194972,0.18130961131269155,-0.41905029040206565,-0.27735190943875127,0.3020764766552794,0.21725936627258408,,,none
1.959163000000018,43.90466717999951,-50.31736334618753,-38.95829227182587,-1.2016082414455986,0.06938243059860445,0.7361145959396765,-0.37471053802004933,0.24964205893677646,0.06781931917589837,,,none
1.9686599999999999,39.670509177840664,-49.47212668502388,-35.705208698150194,0.357622633612374,0.024006829769825894,0.9403360535497581,-0.3324201941553795,0.4650810324972429,-0.04164211016935346,,,none
1.9779900000000055,36.356570364498566,-47.37658443002473,-33.51671955535013,1.0477071084668272,0.6157602922464726,-0.5314850271997329,-0.1250175515210557,0.5952514875478342,-0.09589349749991172,,,none
1.9876870000000224,36.58061760393725,-46.46421055148926,-34.89723615211664,0.6911096427478526,0.42669677063614336,0.04994031456129783,0.1276747337378179,0.13423196159270853,-0.3012825703908589,,,none
1.9971900000000176,37.62023055700385,-45.50029913878098,-37.458173673978074,-0.7263559054977764,0.14563773537176836,1.5753497899074846,0.230411538312289,0.07115246890463077,-0.4327164357641715,,,none
