timestamp,roll,pitch,yaw,acc_x,acc_y,acc_z,gyro_x,gyro_y,gyro_z,acc_mag,gyro_mag,markers
0.0,33.583048541005695,-21.271872568513665,-40.245950247497646,-0.08724292974210496,-0.03160692337677858,-0.0018866488858396346,0.0,0.0,0.0,,,none
0.009559999999993352,33.54158939605795,-21.2609374312397,-40.220726083717246,-0.0843505066294415,-0.033271944736299845,-0.0009889025367541355,0.0,0.0,0.0,,,none
0.01901899999998591,33.48108269988641,-21.247660385103796,-40.20170720070588,-0.07347429819204733,-0.03479924164830348,0.001370323388858468,0.0,0.0,0.0,,,none
0.028542999999984886,33.413698400764304,-21.236912805608913,-40.19433642184302,-0.04586512079074213,-0.04415528487063935,0.01682249936910912,0.0,0.0,0.0,,,none
0.03808699999999021,33.3468427543057,-21.230843509594703,-40.18367247863933,-0.03875458127005852,-0.03452084792650045,0.018876720638394535,0.0,0.0,0.0,,,none
0.047561999999999216,33.287692821741985,-21.228832304342493,-40.16125337412693,-0.02425980414715267,-0.009294163560753774,0.03229714892045372,0.0,0.0,0.0,,,none
0.057100999999988744,33.241841995968024,-21.232402892936125,-40.14458857924619,-0.02715748597297213,-0.010388249793780634,0.03619385231173561,0.0,0.0,0.0,,,none
0.06658600000000092,33.21013638605514,-21.236012783138264,-40.122725444355694,-0.03112842841141998,-0.011900134221949677,0.04151871784810075,0.0,0.0,0.0,,,none
0.07612399999999298,33.1953131594722,-21.234736388402492,-40.081853850616035,-0.05535527717141639,0.0057933719959424555,0.03326945284238017,0.0,0.0,0.0,,,none
0.0856330000000014,33.19591162830613,-21.233698914446094,-40.065417886024214,-0.057814866553220295,0.00609851530858074,0.03464901203470637,0.0,0.0,0.0,,,none
0.09509799999997881,33.20549083647058,-21.232237007364027,-40.047526128753425,-0.057025830646909255,0.0046510401475866325,0.03618241584578906,0.0,0.0,0.0,,,none
0.10463500000000181,33.22362245371097,-21.230598052452155,-40.039356292865136,-0.05265299243093518,0.004155294557307263,0.033571573452198945,0.0,0.0,0.0,,,none
0.11413399999997864,33.244016482832194,-21.22907345421606,-40.03787192677354,-0.03184496758262953,-0.012252935673453483,0.04247273471642497,0.0,0.0,0.0,,,none
0.12368299999999977,33.26148844131015,-21.229477612018247,-40.02304505803834,-0.0327966344229177,-0.012639161411343995,0.04372838085480599,0.0,0.0,0.0,,,none
0.13319299999997725,33.26831809606501,-21.227759911870958,-39.99224822419976,-0.045903701541845685,-0.03555437193072083,0.03171222912752286,0.0,0.0,0.0,,,none
0.14307599999997933,33.267495858424674,-21.225936064979127,-39.96653428475836,-0.046149962328626816,-0.03703434225517308,0.02981910718020163,0.0,0.0,0.0,,,none
0.15221199999999158,33.25593660319526,-21.22412159042719,-39.93988543951644,-0.05065860281918298,-0.03931244158383501,0.03502674011869158,0.0,0.0,0.0,,,none
0.16172299999999495,33.23447775950445,-21.218666169965392,-39.934449552140656,-0.05449950671830125,-0.04077457862041275,0.04022017465366201,0.0,0.0,0.0,,,none
0.17117600000000266,33.20825311314564,-21.20857760009006,-39.93448459874644,-0.05558543547582723,-0.03931727411721878,0.04479755131851787,0.0,0.0,0.0,,,none
0.1807059999999865,33.187380918913426,-21.193601248800032,-39.94155005775121,-0.06057623760941272,-0.0014395981809665428,0.0479323755859334,0.0,0.0,0.0,,,none
0.19025599999997667,33.180527134838385,-21.17689012204633,-39.95089308842919,-0.05698033916410608,0.001422493433964524,0.04094269530932702,0.0,0.0,0.0,,,none
0.19976399999998762,33.191985466119895,-21.162178585565457,-39.990671937208866,-0.03372071050182524,-0.013023438624650946,0.045116828771990455,0.0,0.0,0.0,,,none
0.20923299999998335,33.218186675702995,-21.15265048949993,-40.03327041381426,-0.03256048903510387,-0.012570114221298116,0.04353599170040835,0.0,0.0,0.0,,,none
0.21878300000000195,33.254976304090036,-21.14470930061261,-40.061079406752725,-0.03260064405543649,-0.012595273676950122,0.0435531563231456,0.0,0.0,0.0,,,none
0.22830499999997755,33.292915561286144,-21.144957605053452,-40.07600600741025,-0.03638026786180414,-0.014069923913783845,0.048554982902752876,0.0,0.0,0.0,,,none
0.23776300000000106,33.32523349138872,-21.147890619966663,-40.07333259226704,-0.04099308839273273,-0.015877919376530488,0.05466786402713349,0.0,0.0,0.0,,,none
0.24733799999998496,33.34593848286457,-21.14879732712615,-40.02515061886323,-0.0462338513576014,-0.017969301245164625,0.06164625746402439,0.0,0.0,0.0,,,none
0.2568379999999877,33.358311545503206,-21.15018888103433,-39.97088661269277,-0.05927247743594436,-0.040755305277672474,0.04974109636710041,0.0,0.0,0.0,,,none
0.26633699999999294,33.366395125290545,-21.155933158981238,-39.92126750307137,-0.06114153147033951,-0.041760124146828066,0.051919148998912854,0.0,0.0,0.0,,,none
0.27585099999998874,33.37295173124642,-21.167081926540465,-39.8910444321264,-0.0607939173049612,-0.041240158177491285,0.05215862680838777,0.0,0.0,0.0,,,none
0.28536099999999465,33.38640452158039,-21.18726857935529,-39.88352467441676,-0.04785595056274172,-0.018731471177266357,0.06375098101807022,0.0,0.0,0.0,,,none
0.29483999999999355,33.4045629515642,-21.212585096545414,-39.89644074332233,-0.05049094364983225,-0.01973868508277308,0.06718538580503465,0.0,0.0,0.0,,,none
0.3043969999999945,33.43077254400597,-21.229908206074594,-39.93507251616499,-0.05201141123560164,-0.020298142449073162,0.06911935281827072,0.0,0.0,0.0,,,none
0.31389599999999973,33.46376514166313,-21.235269467632634,-39.95988741237979,-0.0530921396938237,-0.020719494403220642,0.07048099603131848,0.0,0.0,0.0,,,none
0.3234029999999848,33.50070549284498,-21.236245079407947,-39.975092185400854,-0.054319372121345404,-0.021217612375875654,0.07203989958853776,0.0,0.0,0.0,,,none
0.33286999999998557,33.54459970603445,-21.23322449242134,-39.99484086957615,-0.05872226233313374,-0.022965363772359176,0.07779600962042088,0.0,0.0,0.0,,,none
0.3519399999999848,33.65783606204333,-21.234877822994857,-39.97950935797035,-0.058251212264869894,-0.022918138795544205,0.07697663421908504,0.0,0.0,0.0,,,none
0.36144899999999325,33.734820287247686,-21.24876526400787,-39.98083698806669,-0.055326323357208176,-0.021827228462162736,0.0729570514407648,0.0,0.0,0.0,,,none
0.3709639999999865,33.82725104842909,-21.278276477330085,-39.97608373739552,-0.048238185762265115,-0.019086094541377892,0.06343182318860267,0.0,0.0,0.0,,,none
0.38042399999997656,33.93440250664521,-21.333358855371714,-39.966799987483185,-0.04390226820262565,-0.017412260153521104,0.05751508645609448,0.0,0.0,0.0,,,none
0.38997799999998506,34.059413955235755,-21.42592831750873,-39.96255011638904,-0.01966386019524295,-0.053226303023288665,0.03250774199451723,0.0,0.0,0.0,,,none
0.39950699999999983,34.18108358796465,-21.546527068364078,-39.93354628418398,-0.0186171474468316,-0.06473390325732657,0.03360880507843241,0.0,0.0,0.0,,,none
0.40900199999998677,34.27652714072796,-21.697849853589325,-39.90225856302508,-0.0033718476146482666,-0.06552275870595821,0.012735071910106466,0.0,0.0,0.0,,,none
0.4185059999999794,34.350657164814706,-21.859717402428824,-39.886879147975925,0.009456287701718821,-0.04716413672338088,-0.00713968906463676,0.0,0.0,0.0,,,none
0.4279589999999871,34.40803670430886,-21.991783126237138,-39.88579532191926,0.059853577184607265,-0.0008294987596772343,-0.11503760430661704,0.0,0.0,0.0,,,none
0.4374210000000005,34.490130563171725,-22.147968045910133,-39.89756861632519,0.327220255648248,0.05926269363861269,-0.5233692035147656,0.0,0.0,0.0,,,none
0.446944000000002,34.76678741816063,-22.299452358488345,-39.96381462556554,0.1842781013657123,0.043176564600966874,-0.42492774560594593,0.01986772783694781,-0.05617593813152324,0.0012936865098733292,,,none
0.45624499999999557,35.16611650056257,-22.528495330212266,-40.196619103063696,0.37338186670110035,0.15570413933221341,-0.9583068025506011,0.027048307330911632,-0.08268742838028845,-0.023031687134123468,,,none
0.46575999999998885,36.020424632384405,-22.928136013538808,-40.64778608710065,0.069998987975645,0.14264704668188985,-0.9912515827823417,0.06829630168937817,-0.16321086994993805,-0.03527566816510082,,,none
0.4753059999999891,37.20208064775777,-23.300848985489818,-41.16577364562686,-0.1507794063507949,0.15061624854986178,-0.9450215690391679,0.11566989214670921,-0.19887659412956815,-0.020108927161248267,,,none
0.4848309999999856,38.32641952631414,-23.432105564726317,-41.52972855306007,-0.2688630948728681,0.10997665893685779,-1.0921926437101677,0.13783693550448117,-0.15622846897846482,0.00872553729971645,,,none
0.49440799999999285,39.519786091332016,-23.403932234347387,-41.726349718700796,-0.16801772447717214,0.04200822725514368,-1.2171528173964923,0.16768092891467437,-0.14141839178112525,0.050855145168305964,,,none
0.5040129999999863,40.772725308151855,-23.346242998592064,-41.822215063340586,-0.20711162370156824,-0.07406067614033282,-0.7459367733058343,0.17945030586641497,-0.14481422434812835,0.08034704427082942,,,none
0.5133579999999824,41.447840307968775,-23.262752737402344,-41.82171199910583,0.06729225097965094,-0.24632438871828713,-0.979341778204124,0.10367619963360597,-0.07033334234148236,0.05358259478911792,,,none
0.5228599999999801,42.08193449307246,-23.324598825418537,-41.86049363082631,0.11634746115580873,-0.2770151408577449,-0.9939079659285784,0.07862323885995058,-0.08702511129068378,0.04244726021994709,,,none
0.5323759999999993,42.62157806778944,-23.623929442009125,-42.10113475397773,-0.006145555942480739,-0.264339488843537,-0.8786170031663303,0.03357968401719911,-0.11086072647417823,-0.005136698000321603,,,none
0.5418889999999976,42.89713843394666,-24.007788590293732,-42.41605188478588,-0.06258523023338057,-0.17143446547800295,-1.0505235185285668,-0.014297304191326483,-0.09085124193061876,-0.05265276763371679,,,none
0.5513409999999794,43.09100144593373,-24.329419053516833,-42.75967886615435,-0.26096585733004707,0.0045077876867788535,-1.0221317023115941,-0.017486961545334176,-0.07140178572474451,-0.06491431068309271,,,none
0.5609059999999886,43.05857251708317,-24.53044718718415,-43.128822746823865,-0.27743298780877423,0.09452465071132571,-1.0731490068522855,-0.03175745159144417,-0.025459790587828306,-0.08651157872542395,,,none
0.5704219999999793,42.897040453242,-24.545046465015766,-43.407410350982666,-0.18959832945285532,0.07723634816178357,-1.0452030391203881,-0.02344648485383231,0.018028062475678952,-0.07829531387849903,,,none
0.580112999999983,42.68067304609215,-24.399684429075563,-43.56117144014471,-0.06180402299912426,0.05581984545245222,-0.947191919779943,-0.008595814819103218,0.048256055263922265,-0.0535749006352348,,,none
0.5893959999999936,42.42561397604574,-24.274590209110002,-43.71070617314246,0.1335190384979906,-0.02527653997292017,-0.947857043522151,-0.01639687653720625,0.050243284615934726,-0.050994519393771864,,,none
0.6086379999999849,42.36008607902874,-24.477142799595544,-44.127929802265335,0.18918430442168774,-0.04073916073106374,-0.8714069861970124,-0.02061170954207251,-0.029599309515754294,-0.0433193567995019,,,none
0.6179239999999879,42.535600637455566,-24.796997741700725,-44.43402000311723,0.09226125477839742,0.04384432948871969,-0.9658090955829385,-0.021859114573739877,-0.06816496234413226,-0.046635913998551826,,,none
0.6274859999999762,42.86988203955026,-25.165024149001415,-44.7938485350457,-0.08263720253827285,0.10835753977102587,-0.9613314633149419,-0.008580369488009871,-0.09508131024496357,-0.04377798941283657,,,none
0.6369869999999764,43.2151699962577,-25.411225515655723,-45.100597310147194,-0.16674025937163953,0.13710069990779755,-1.0336251344997673,0.009405883030989205,-0.07906295020931253,-0.03188484796552657,,,none
0.6464529999999797,43.55539169155899,-25.48332034681984,-45.32717854706311,-0.183834015715617,0.10272870872444254,-1.052684157867098,0.03308323138998013,-0.05383405341740872,-0.016097079246033052,,,none
0.6560169999999914,43.85059985115829,-25.435859774780774,-45.515486891737616,-0.11790875131211326,-0.008293400289009493,-1.0019569983152514,0.04422640557495366,-0.03134595701752077,-0.012296660513023356,,,none
0.6654779999999789,44.05022297397323,-25.33792574169905,-45.68310188928573,-0.00767871774885081,-0.1331083388045171,-0.9687718248050488,0.0,0.0,0.0,,,none
0.6750260000000026,44.18700523943022,-25.29778512675741,-45.81402680547436,0.06087734314412576,-0.18388519796327507,-0.9446917164076536,0.0,0.0,0.0,,,none
0.6845319999999901,44.26390557425452,-25.414161558427516,-46.0244359250574,0.061293767981641926,-0.17563556624114374,-0.9401628806355838,-0.007053075622023624,-0.026215943017499025,-0.05081998707614601,,,none
0.694012999999984,44.29885413154268,-25.665518795677862,-46.283227789601646,0.0010247489345921593,-0.0997429712680392,-0.9562016873451512,-0.03190891159765112,-0.039451132135988144,-0.06666401641437095,,,none
0.7035109999999918,44.28784234063151,-25.952428016297155,-46.51613844781516,-0.09200110382729072,0.02977233197569321,-0.9851860678252654,-0.042953835206344305,-0.03822824733123562,-0.06841020331212955,,,none
0.7130449999999939,44.233506343329225,-26.194337456532875,-46.70221015761033,-0.13224897876627997,0.12117714559864791,-1.0223804850563787,-0.04190365701255713,-0.026220421548000725,-0.06398159138255778,,,none
0.7225479999999891,44.18063210158397,-26.323221740868714,-46.83253252401983,-0.12017202377295302,0.13672232720521701,-0.9972666805509527,-0.025307944537782172,-0.0107828382739765,-0.05030461156493131,,,none
0.7320569999999975,44.136904544526644,-26.318181828689003,-46.88903070442466,-0.044862180711053884,0.09607613018406518,-0.9670104905079566,0.0,0.0,0.0,,,none
0.7417590000000018,44.14886228374751,-26.25574403887908,-46.95034885285425,0.05162917817245923,0.0195798699183051,-0.9394887205673877,0.0,0.0,0.0,,,none
0.7512559999999837,44.255215703427545,-26.236288584777448,-47.08515689773479,0.10525841576043357,-0.059441817393166035,-0.8994639573358054,0.0,0.0,0.0,,,none
0.7607989999999916,44.43195582510155,-26.306910794657178,-47.2686361527881,0.09647108884630899,-0.08871456349956539,-0.9048903054005499,0.011218206461420136,-0.032881114052143695,-0.04110356894105482,,,none
0.7703169999999773,44.65810811619974,-26.480475397800056,-47.473714503720906,0.024692788674253913,-0.05780177283828178,-0.9446426787759964,0.001948263528483393,-0.053387049307070625,-0.046664592652671186,,,none
0.7796089999999936,44.88321826167958,-26.721583251187948,-47.6844948312788,-0.07594427148848786,-0.009436436264414837,-0.9776074706158382,-0.008393828166769703,-0.062336745054260394,-0.04893115017970429,,,none
0.789166999999992,45.04423604778734,-26.941392090822564,-47.84551144027544,-0.1448850060043276,0.03330148639560352,-1.0058652297712563,-0.013207432797204242,-0.050906870293914046,-0.042111615055332265,,,none
0.7986799999999903,45.11132903654529,-27.076147953140897,-47.91763122396261,-0.1653889250209227,0.04554846959684372,-1.0002691312598557,0.0,0.0,0.0,,,none
0.8083629999999857,45.10559125804892,-27.129059157421885,-47.9173624241022,-2.5354658256643803,0.424986573272529,1.967169946147978,0.0,0.0,0.0,,,none
0.8178719999999942,33.97512133944965,-23.71722202852737,-46.192265844057864,2.4978467007817007,0.4279185792478625,11.667877788876758,-0.872895243146413,1.9374726126274333,-0.6125981661080551,,,none
0.8272079999999846,11.850377168781952,-10.358019305121632,-45.58094336482034,10.455501263217219,-0.47739633184489705,0.6907753381189874,-1.0355665883947496,4.891194198439794,-1.0756591698747717,,,none
0.8367920000000026,-8.68429588572001,-6.513419265125268,-54.884442605314945,2.7874948599802227,4.679940731898617,-5.134734086848132,-2.009039147021387,3.6269050712304196,-2.374539883251264,,,none
0.8488399999999956,-23.85249116990657,-25.666992740885995,-61.42252406670608,4.135025508436947,-2.4386888174152106,2.552438736673634,-4.7963546210436885,0.44678102218267113,-2.2901371905259267,,,none
0.858193,-35.81238960242078,-41.839353718633035,-64.87860314323906,7.888851401058647,7.3175484291767114,-1.5695061133589032,-3.7843352870472846,0.3252796628139281,-2.0217413668532274,,,none
0.8677050000000008,-67.73916249539086,-53.57776846006695,-49.45559407135134,-5.211868902164757,-1.8596606787903605,-2.1457395131124213,-4.234157133526136,2.363462054194811,-1.696586831491759,,,none
0.8774049999999818,-95.89459297787704,-48.02682004201165,-22.53307636665953,3.071355715990948,2.204706554977236,3.077021302450417,-2.229709020198626,2.9575813672409015,0.9747602248396167,,,none
0.8868159999999818,-105.59534662870406,-31.510462395396058,-20.047762167071014,7.3105783585013295,1.4758824364956795,-7.912763384832863,-0.1971669661763518,3.6174320676045197,-0.7518916140676806,,,none
0.8937709999999868,-121.62004670814915,-14.483466886373916,-28.098157751371286,0.13634318727802078,-6.0520954915671155,-2.7242065643696236,-1.327033547638308,4.31125438191017,-2.8486559245943956,,,none
0.9032909999999958,-128.47643392854349,0.8994123342492912,-37.64702275284252,-2.496584211984605,-3.0163332580803597,-1.9293172822874123,0.5129533736335912,3.3327047904538234,-2.128096012842148,,,none
0.9128669999999772,-130.67499418272865,11.046086956187903,-43.684849487079916,-2.5164096870960417,0.4242784539490434,-9.014988851671772,0.9865930944883735,1.8306478209796202,-1.2285291687278552,,,none
0.9247709999999927,-141.27873052237447,12.391462046929576,-43.877105203816,-5.849767499300495,-0.40339645157063997,-0.1834140110195188,-1.318241349635035,1.629293906558377,0.3441566529251373,,,none
0.9414019999999823,-141.87878598270413,7.077756918614799,-18.511084663750335,-0.6650531025562458,-1.938004375039685,-5.434852244383324,0.11060165116131232,-0.9791799207599023,3.079258701055152,,,none
0.9510119999999915,-143.65646337948093,0.21192483896511868,-3.6120466513547194,1.7366726371996684,-0.8480390704352815,0.7997023228126554,-0.6178155871100415,-1.2835953597692433,3.0631213737740035,,,none
0.9629839999999774,-142.38101483958704,-3.6228033156556796,6.587977971323621,2.6216537549554793,1.6250836073532495,1.529899481636563,0.2740317887363502,-0.7628458629333368,2.0946753367903965,,,none
0.9698609999999803,-139.9409224208619,-1.8741858559359403,9.814315820039207,2.7606776221836644,2.83419168805779,-1.5118716553111449,0.43329993001412237,0.41589140024671667,0.6813915509564334,,,none
0.9818159999999807,-142.31894684806676,5.380575436151292,5.992490501143726,3.343534558619775,1.7136302459946013,-0.6565863857070647,-0.6733168819354393,1.3727814203654127,-0.7800746591262085,,,none
0.9888779999999997,-146.45914918215124,16.77265439504915,-3.9512080692417766,2.1534938741208505,-0.41999647207035695,-1.6632579431820698,-0.8621339820738525,2.2659056019882162,-1.8855324429381555,,,none
0.9984549999999786,-153.98274800912114,29.23816191878427,-17.43770678253625,-1.552555726237551,-0.9278847455546511,-4.151200150755397,-0.911904587995116,2.7082467794846425,-2.1694498092223573,,,none
1.0079059999999913,-167.4176770503104,37.23358198736667,-31.50542722432691,-2.869302053981367,-0.45190172575176174,-1.530425106565577,-1.3944061932641354,2.3794071429758294,-1.3870132352347946,,,none
1.0200629999999933,-178.6699838824672,39.53684412319486,-39.898619277824324,-3.1628341099658623,0.4813781672983124,0.9736949638987313,-1.1670331011702584,1.4007597124591722,-0.3182504945512933,,,none
1.0269169999999974,176.38182143686146,40.47796512207961,-38.30761353570731,-3.362543466144071,0.16914981628300244,0.7335421478167834,-0.47040990774311975,0.6245316717118881,0.9414804058546865,,,none
1.0366019999999878,176.05596060258554,42.144581507321845,-28.16964437468848,-1.1323848494547015,-0.7204500134988692,0.10564584090808747,0.14213381406623568,0.30653616944030343,2.0915734829479,,,none
1.0459529999999972,179.11959514180668,44.4364721784323,-14.30457126134052,0.6495775582812034,-0.6315042246216762,-1.3450261185042063,0.5832579924178407,0.2657638860809718,2.390723063599868,,,none
1.0579939999999795,-178.7209374231486,48.43700193362596,-2.6146271727854526,1.9670977370401184,0.2362943672173299,-2.278283814446014,0.41364766718329193,0.7490773557982425,2.0579609221436215,,,none
1.0650369999999896,178.32483717707132,54.76239920398359,1.4598326012212242,2.0037658323840217,1.2829932391322636,-3.7641505487019375,-0.35403600492668,1.271314868779366,1.2977165143563965,,,none
1.077021000000002,165.36465685389197,60.642324047813645,-7.860686309512998,0.3404445433191587,0.16753966103467385,-4.434206376749804,-1.3168631177748469,1.2462003361112275,0.3238566900634355,,,none
1.0840589999999963,139.68196025784005,61.54977331501863,-31.082209660779032,-1.396862937064484,-1.8561035271233854,-2.4601433682501144,-2.266999070911832,0.9891030575796437,-0.13292326347271352,,,none
1.09349899999998,114.25154554557518,55.56165870104778,-52.82997478080537,-1.6067842841290785,-1.917099798724734,0.1366522163248941,-2.747458084387327,0.8917994195112732,0.014002911701075635,,,none
1.1031899999999837,99.44201815226018,47.28455068828263,-63.09167904024215,-1.1391910143045305,-0.8228656261870572,2.170538375384413,-2.375271041744261,0.6921552024147162,0.27438050967152083,,,none
1.1151569999999822,91.11648522571302,42.312050488042146,-66.19299332039895,-0.3040926500595734,0.6896039276632302,2.897341383830258,-1.404675998127512,0.6430370427617524,0.5554411965795674,,,none
1.122207000000003,84.44846094697446,42.67949312991328,-68.16238164491855,0.41788447466650125,0.8090701815961024,1.8435231373225334,-0.3140484173018451,0.9355687279230428,0.507745163148794,,,none
1.1341839999999763,77.12676545801028,47.19634655943919,-71.89654267846842,0.8033978686232339,-0.4159617387542697,-0.11947661906854731,0.4930242704732361,1.2840764989139986,0.2648768013883509,,,none
1.1411409999999762,67.47977779717557,52.78708529071289,-78.56733998830637,0.8002526337600857,-0.8667269778028656,-2.1568367604798655,0.7605607890941407,1.4859359401775676,0.10991644207131968,,,none
1.1506339999999966,55.39184272796357,55.45898130025041,-88.55685205224619,0.4076616652341378,-0.4967388015826075,-3.488473164543457,0.3672859701821009,1.467896085377572,-0.07983986132096282,,,none
1.160145,45.13543177991233,52.79684542470583,-97.29650483113814,-1.0456691404380467,-0.9134986674697422,-3.2917904911346425,-0.47224299790966284,1.22670732367698,-0.13312944995575102,,,none
1.1695849999999837,40.251291488860375,46.01626741676498,-99.65702541642709,-1.6006456056610598,-1.1253427095421238,-1.7592165066705987,-1.250338310906079,0.827003471626,0.22176612655613068,,,none
1.179267999999979,38.10584040224968,37.3252358762001,-96.8394225089112,-0.9287771250630933,-0.5792647553266757,0.2891024216777179,-1.6776245404017678,0.5648105475092916,0.8084514004840475,,,none
1.1887839999999983,35.22346673408647,28.639108156733563,-92.04590299181984,0.03116464050234336,0.49560259053997513,0.9040323863230387,-1.6978585146652352,0.6162555364903919,1.2448633554206474,,,none
1.2007399999999961,31.47578157238884,22.224836473877442,-87.15900694111006,0.6220223089902172,1.211429751978264,0.8070909714370769,-1.2899987312649095,0.6682184984621274,1.2753111658953118,,,none
1.2078109999999924,26.892246909972506,19.065600547178978,-83.84685834813428,0.7432292273691878,1.4012487921384242,0.48633047327354306,-0.6992520286645456,0.8058484651344229,0.9468845479872949,,,none
1.2197769999999934,20.827789384231643,17.84485280045387,-83.71407405585906,-1.2487266353507331,-0.7234317015698011,6.332292046264096,-0.370474652709847,1.1177919047306277,0.35215446733595085,,,none
1.2266410000000008,15.763485679185596,19.6209919823061,-85.98920002314473,-5.188887235448106,-5.23267030784681,0.2849251512411992,0.2644653430205283,0.9893268904999352,-0.20693302581266837,,,none
1.2362459999999942,23.365843065210015,26.476642223412973,-87.33121797554139,3.680776356662453,-2.665672859114451,-4.855209809285519,1.456398057353524,-1.313212224964422,-0.9673729247022486,,,none
1.2456609999999841,24.141535627357083,29.844415159393833,-91.09919847218337,-0.8757830983707866,-2.6135953796535447,-0.42755018696350255,0.6763360902883199,-0.12782221810441144,-0.8276527613245369,,,none
1.255248999999992,23.31029157339292,23.803405309109696,-95.77176302292666,-1.1264179488343156,-3.1395168395788113,-5.772915522323173,-1.200144046644956,0.21528001060834426,-0.9655825422812204,,,none
1.264852999999988,28.453219474830384,21.64115900428467,-95.07085959005116,-1.894215486172002,-0.47810890090169156,2.9695363270212063,-0.5168735925842888,-0.9069617489168545,-0.3502274277833701,,,none
1.2838459999999827,31.233332501126426,19.45645245810845,-92.33115476381805,-1.0819514482074974,3.091224731321684,2.0701956099969117,-0.35769656538368094,-0.15215040166571847,-0.05965189441592102,,,none
1.2934199999999976,30.477539329834297,21.907663556869345,-90.82266780723856,-0.6757075999853237,-0.4241395449650175,-0.4492460278030369,0.4943119521619629,0.12925011759341007,0.3005219663239502,,,none
1.3028039999999805,30.68642490120906,27.799541776799327,-87.49380671262912,-0.5268539485874075,-0.47171268172793507,-1.4203196584336593,1.1805835050376676,-0.01827043258188583,0.6036075870004518,,,none
1.3123259999999846,30.640855751854264,30.78251082766824,-86.31194259234697,0.9647667312453564,-1.5448434336074215,-2.651907425072027,0.5960251357960228,0.04146864401864882,0.19404185715047417,,,none
1.321741000000003,28.101508223289294,30.651048607930125,-87.43299364079465,0.0821801951702572,-3.4590880908616115,-2.7597122713221713,-0.05119675106577771,0.43492314829821577,-0.01942576462682434,,,none
1.331339999999983,25.808368729909464,29.804246537071947,-88.84581296917136,0.06997875382636376,-0.8059865502714753,-2.127935279869556,-0.18334757396859527,0.3905696448319845,-0.10837232338793862,,,none
1.350453999999985,22.298888158751854,25.212698341695837,-92.70135590850548,-0.39650161918237137,1.0788987231177998,0.770478559572767,-0.45965649156157457,0.3712388414591755,-0.2733737315641204,,,none
1.3597929999999963,21.544763141057313,25.653766225458842,-93.2146901989139,0.3051610081182842,2.149413874754913,-0.23395304431751748,0.09487708184450783,0.13188717337997277,-0.10030117948418124,,,none
1.3694869999999923,21.53559780383347,28.353390072666382,-92.42611477284362,-0.07827401679052627,1.233097372339394,0.7567042076514106,0.5401390544896549,-0.02343305760714436,0.09387341141993312,,,none
1.3788999999999874,21.810413339182045,31.470971804743424,-91.05274458332019,0.11880516664656544,-0.15775378410562832,-1.482655240704251,0.6228114480150613,-0.06493710816699542,0.18562811672207913,,,none
1.3883319999999912,22.898679893731124,34.14740793419733,-89.34126934475084,-0.04400977745072312,-1.9380365246512845,-1.779035143765337,0.5357833863707889,-0.1838346249760125,0.1749562640618927,,,none
1.3979109999999935,24.203164960393988,35.55692665333097,-87.73276715256179,0.5901833469509481,-1.4967333833683905,-2.9667070181017454,0.2880870616329628,-0.20649738116381477,0.12727651549323526,,,none
1.4074289999999792,24.67781064493798,34.75782913476544,-87.32417486497006,0.22452204695105202,-1.1385136824031636,-2.025825844670252,-0.1563465484228609,-0.0848827168446482,-0.02340489785335128,,,none
1.4169279999999844,24.914265055725963,32.73407845681095,-88.13904881589771,0.0868992681828474,0.01942060070891733,-1.074276174608977,-0.40329627421600683,-0.05651151343876301,-0.25182611584462145,,,none
1.4265419999999835,25.112380740309696,31.268818390320078,-89.50785519814593,-0.06990381336855356,0.8759974033694417,0.45536494913216385,-0.2926192964331756,-0.04052228199741742,-0.359138863293318,,,none
1.4360619999999926,24.83411121445445,31.297873158078357,-91.06657244376775,0.013544463847865678,1.8572051461431294,0.23106007115922853,0.005909903171303842,0.047567735898630795,-0.3397487265176078,,,none
1.4455689999999777,24.734546541153538,32.83969181340815,-92.34579290468432,-0.3389643350108793,1.210594285242007,0.1569297984963524,0.30910915353484625,0.00838133221447314,-0.29914226581223996,,,none
1.4550789999999836,24.988254635176776,35.700317000522695,-92.71710438031813,-0.44754424062434667,-0.16269100641182926,-0.42798627428738256,0.5706333889234527,-0.06596790471344108,-0.15530807011477293,,,none
1.4644699999999773,25.13308717722711,38.84509124061325,-92.00995223338363,-0.36667081776896343,-0.750409153454262,-1.6269505581192323,0.6284506734469998,-0.047643062831776314,0.07360005560068883,,,none
1.4739999999999895,25.67989030768655,40.57343477369019,-90.72718126419757,-0.026234864423305446,-1.261100094192794,-2.6933768602925308,0.34426748084886116,-0.0916789420166303,0.13513678457279982,,,none
1.4835019999999872,26.304250473538342,40.568782436287506,-89.49892246443845,0.060891594874542425,-1.245163714631403,-2.351208002399002,-0.000917745159489098,-0.09494430119952621,0.11969090131111025,,,none
1.4930209999999988,26.730070770603014,39.35971869695654,-88.78875902975994,0.11691082692100108,-0.4506111574961982,-1.5498372679794872,-0.24100302205343388,-0.06942977805036057,0.042282458854571665,,,none
1.5026389999999878,26.500798650785224,37.692233311709344,-88.93309799419637,0.07424364847566922,0.27526681490566185,-0.17214408875345524,-0.33468052287667377,0.028502736753643766,-0.05235607980040557,,,none
1.512141999999983,25.552670430058722,36.76456861146643,-89.85814641535363,0.09533931223166833,1.290956714041623,0.08473971906830584,-0.18769926278074198,0.1487924831680857,-0.11807954508133948,,,none
1.5216509999999914,24.85040943225833,37.399120982821096,-91.08697124029135,-0.61514875607924,0.2107148561216351,1.6187552729647223,0.12774235758663816,0.1113787324007813,-0.21090423261564564,,,none
1.5311649999999872,23.385149715480633,39.57442924080685,-92.2682292156069,-4.021371972925382,-3.7371886481973084,4.806178171097621,0.44171944783353856,0.21768943373301852,-0.09987498347396041,,,none
1.5405659999999841,22.475765682892206,41.996550593178604,-92.99418883327104,-1.6796981834406097,-0.6296209956396633,-2.152806435105293,0.4906883316122467,0.11635707355216558,-0.06852777122478416,,,none
1.550089999999983,25.410361944068445,43.34120561076977,-92.82226906007695,2.16226550187377,-1.6772403604719002,-4.447241472814934,0.24790031727917428,-0.4447295533295729,-0.4111217913122188,,,none
1.5619719999999973,23.814751777430043,43.082221439672836,-92.67144941127478,-1.8575176528122486,-2.1293250055457653,-0.07604908003037601,-0.04103432838986269,0.23504212781550893,0.21131842852643085,,,none
1.5690989999999942,24.106612658034518,39.132018623873975,-93.17031934195943,1.0487993637077975,1.0581672460058,-5.7936056396394555,-0.7923865743425208,-0.005036566985802033,-0.17702966990536298,,,none
1.5787129999999934,26.63066261725861,36.22207918412462,-92.27485316077498,-1.3899112812228238,-2.3431920287957686,4.599618535438152,-0.600315377285008,-0.37308598891357225,-0.17325013249922017,,,none
1.588054999999997,24.51777216430967,34.399964448657094,-91.80442153461908,0.8987716869519377,3.9976464071404094,-2.6903653862563663,-0.35277235970554555,0.35766668330466,0.31218699330917105,,,none
1.597724999999997,25.194602405636246,32.821672793766375,-92.03288432901981,-0.5066665103378094,0.49433667627615024,1.8270244957490505,-0.3195572298423925,-0.10267207846295028,-0.15124184608592592,,,none
1.6072399999999902,24.798896981595195,34.09206634374106,-92.01522089839071,0.31956706784988437,0.6318599488516814,-0.08358638197582591,0.2565124390473196,0.057459137351831696,0.013548034698063652,,,none
1.6166559999999777,23.731226881522566,36.86977342597197,-92.08662901681639,-0.18795269881969306,0.10079297335774906,-1.401494338336611,0.561973470549987,0.15476760397213876,0.08247766626201677,,,none
1.6261719999999968,23.183823130083645,38.21546028283852,-92.88968681547766,0.14788326261094617,-0.9207041559334183,-2.041896528113388,0.2729100814570906,0.07548710228963611,-0.12550176691124537,,,none
1.635671000000002,22.193777213338212,38.01481737283484,-93.73427420603444,-0.10055160153583435,-2.0522949020262335,-2.463823951061342,-0.03134618546873647,0.15797917463122843,-0.07942412245200864,,,none
1.6451869999999928,21.294688856844907,36.95087141054627,-93.89241549199389,-0.18539434901805835,-0.9075497068929403,-2.0235588273611613,-0.20331180675239255,0.15646242036793737,0.048194901207063844,,,none
1.654576999999989,21.31114920168086,34.45563477988095,-93.90638489149478,0.2411162179765001,0.36105312305963,-1.2062534172859158,-0.49880052766927746,0.030660668571204863,-0.034618179659829384,,,none
1.6643139999999903,21.136555409321456,31.53097802172083,-93.98899403607489,-0.20816551522430368,0.218186427454053,0.4747714888671573,-0.5824036274140686,0.06884067493907829,-0.026533665794560537,,,none
1.6736499999999808,21.064028507974083,30.25035503476437,-93.77065865276484,0.34983834171790074,1.6222725603748154,-0.4670980153156328,-0.255068818367743,0.029500533356588844,0.025097421573973495,,,none
1.6833299999999838,21.32505893651933,30.542829491254995,-93.57091098201367,0.08386739482876042,1.002403353348915,0.5301391987609518,0.05562036893285386,-0.04868204288538012,-0.01187866470246935,,,none
1.6926739999999825,21.152836812254176,31.573526434055502,-93.76380354880949,0.18245733468436307,0.5175350134203602,-1.1087640703010715,0.20786153888406805,0.016492324505282326,-0.04490871671252003,,,none
1.7021900000000016,21.16951589534899,32.92549384358013,-94.03564472641072,-0.2284951266645722,-0.9877851937852202,-1.043756039771572,0.26995966437790264,-0.020896271851720577,-0.08563625423167595,,,none
1.7117609999999956,21.05167271852365,33.88288432949242,-94.22592690695525,0.04447412290423042,-0.9208797515073474,-2.328296732762553,0.1926436370750406,0.006126094671817161,-0.060348516394113795,,,none
1.7212809999999763,21.016467832296996,33.32292758669843,-94.53803430537366,-0.13070047992726158,-1.0209311389136668,-1.8784300669179252,-0.1113939310469279,0.014267148112236306,-0.08850179014464372,,,none
1.7307830000000024,20.98994451072826,31.350870038259643,-94.87243232716332,-0.18153073125923924,-0.6846672160303366,-1.46136852990422,-0.3932975085557602,0.036382050821301457,-0.09199196869995736,,,none
1.7403599999999813,21.105146911642873,29.23665786246879,-94.92147583941606,-0.1505161643888469,0.17706929123513981,-0.49049228825166097,-0.4235843342355971,0.01576619387487646,-0.0498842779540477,,,none
1.749904999999984,21.117220469232617,27.564728907558976,-94.90366854881707,0.09526084833596901,1.1240123249029728,-0.2711388347474663,-0.33381482738397555,0.026166964380852652,-0.02407177155012752,,,none
1.75941499999999,21.01458117211825,26.675767413938157,-95.00809574340624,0.04687719227492929,1.0462087354989313,-0.07717138276961723,-0.17582246444660757,0.03340785021849884,-0.036877736645791866,,,none
1.7689279999999883,20.80786216619072,27.082802236993537,-95.08532535453958,-1.971084406372505,-1.1810333209938584,3.4974597818542423,0.08441508149994509,0.02968746202432549,-0.0183238084152231,,,none
1.7783999999999764,19.96009954008312,28.87868051502813,-94.86707455727348,-3.90263416868096,-4.822580334992603,4.0124651483782,0.3712050017659599,0.11846221989639559,0.10544591226093938,,,none
1.7878359999999986,21.52478908686426,32.31824293103432,-93.40479537619895,0.9010613864013579,-2.1447765192659847,-6.749450955329556,0.6679471985842652,-0.31788037688767573,0.10520157245796943,,,none
1.7972839999999906,23.07221458631943,34.62681594625547,-92.01621076424469,0.7668431319741112,-2.2538076886026777,-0.8734734260263733,0.4500582397937246,-0.27928866916006206,0.06825249544245857,,,none
1.8068700000000035,20.730405140982867,30.052662004641626,-94.19256817301748,-0.5721777650024309,-0.9857137189133554,-4.540482190645988,-0.8938425769521409,0.4439300782476518,-0.21970132444256993,,,none
1.8164679999999862,22.37777399813646,25.953587642023983,-95.53482266432117,-0.4861313002577282,-1.7446220544197657,1.7706369955917132,-0.8423553530600829,-0.22190054853200178,-0.4554603130864273,,,none
1.8258129999999824,21.616587210963683,25.561100153284592,-95.8521240297455,0.5464416089793769,4.125695778586734,0.019318183300601855,-0.06474318590382151,0.1443354443367797,-0.020232016868359896,,,none
1.8355009999999936,21.431761048063805,24.523457072353338,-97.28580326183594,0.437098078752433,2.8468299706375433,1.3448824887753397,-0.20269503422751747,0.05683314985575619,-0.2973720259238827,,,none
1.8450289999999825,20.703281488347084,25.672488519529423,-97.86071102454959,-0.5914994826364744,0.6600119842905894,-0.2810879766306413,0.24539169439407574,0.100881189130943,-0.07751816946259327,,,none
1.854348999999985,22.008221698623828,30.348309364371357,-96.32765014673157,-0.21398332258986555,-0.5462816696450372,-0.800399187662722,0.9009621062499533,-0.3439986248789552,0.1680778534288312,,,none
1.8639340000000004,22.796342998425786,33.53704117181177,-94.71690648550045,-0.04981209621126541,-1.5434527292961602,-2.579201404426026,0.622866968712048,-0.1944518762297708,0.22812480721788933,,,none
1.8734350000000006,23.23669792061329,33.22742070471057,-93.78044878251305,0.10368803572707226,-2.8571845084265868,-3.2366334128124064,-0.06723677242757663,-0.06886081477478548,0.12503190855972585,,,none
1.882959999999997,23.444729371436967,31.77423345131655,-93.22075772769676,-0.11226612943692935,-1.0874129589903105,-2.1124288449587407,-0.2926163469035842,-0.017413713449590522,0.07991266648655715,,,none
1.8923910000000035,24.047911320072146,28.93372007455443,-93.76389174727052,0.43002705254387996,0.35961204960573356,-0.8243384582071194,-0.574113455299081,-0.06985261312596389,-0.18741977178336267,,,none
1.902072000000004,23.309889238978304,25.9105999797518,-95.29859905037048,-0.2422057645003134,0.8780087525174061,1.1343286999816102,-0.5934079361826756,0.17789712314669012,-0.26615678428205375,,,none
1.9114059999999995,22.673741993318906,25.299858662074467,-96.65182684674998,0.48763295443979965,2.5208622642133918,-0.46855649403038774,-0.10985422798867388,0.12684373007801114,-0.24179743382758392,,,none
1.9210959999999773,22.99973621402243,27.051010308736423,-97.43002667530462,-0.12595514982187148,1.3994674911449223,0.8767007131456481,0.34095853944330484,-0.10079624526008711,-0.20846832189599557,,,none
1.9304429999999968,22.795616490600946,29.72870681225907,-97.8250717796869,-0.15943790361588436,0.15219105409096567,-1.027911108861251,0.5362996838861934,-0.035101590320282455,-0.07852010655797176,,,none
1.9399379999999837,22.976964431703713,32.38785236119687,-97.44131193457787,-0.5033777096320642,-1.2389129718380523,-1.494353401802135,0.5237549858354684,-0.10126144095363214,0.04464120742445578,,,none
1.9494579999999928,23.644415428681317,33.78666511211302,-96.35438427191666,-1.7479666005754417,-3.4781948207269124,-0.114919153833597,0.2647535021380652,-0.1446624701682515,0.13274857955666483,,,none
1.9589660000000038,23.196844545591116,32.23837283903676,-95.65110062185121,-3.962589873806346,-6.296609314652595,3.282052066220756,-0.30054017567479674,0.10709225645737179,0.18214760960142004,,,none
1.968465999999978,22.942204860771135,30.248130475744404,-94.6737775190185,-0.035723869481772724,-2.6682695011586883,-3.712875357056195,-0.39303148995062887,0.0793102639205573,0.22219588255298303,,,none
1.977991000000003,23.724924769418863,29.287071149057216,-93.66300317981523,0.8313501562515158,0.048533015247362074,-0.6220983503301731,-0.2018300509461758,-0.12169380925210775,0.12458414022368815,,,none
1.9874899999999798,21.45978630896518,24.57372919311538,-95.77809942712098,0.2886608656850592,1.3795856364061627,-0.32082970157348123,-0.9077307199739587,0.48004850122817333,-0.23654014923836783,,,none
1.9971869999999967,20.32999935123319,19.96908272998324,-98.71659745595521,0.32730048681192686,0.8760528893351989,0.2096877290916669,-0.889014143332501,0.3224970190741188,-0.5427898828213991,,,none
