timestamp,roll,pitch,yaw,acc_x,acc_y,acc_z,gyro_x,gyro_y,gyro_z,acc_mag,gyro_mag,markers
0.0,28.33848257336425,-21.625231283577175,-93.18110320819687,0.06547152524242379,-0.008572079993477357,-0.0124249400495948,0.0,0.0,0.0,,,none
0.009129000000001497,28.342856901271688,-21.676452043732127,-93.1847684527367,0.0644370012113781,-0.037191228713981374,0.0002751860221349537,0.0,0.0,0.0,,,none
0.019015999999993483,28.322935980965052,-21.75997376701877,-93.14121001113968,0.05964202333352286,-0.04158492625374529,0.0020069083364891724,0.0,0.0,0.0,,,none
0.028527999999994336,28.273839982596158,-21.849810891866692,-93.05259075362939,0.03960854614083039,-0.020430357834754064,0.03088520167523254,0.0,0.0,0.0,,,none
0.03805199999999331,28.213940102589042,-21.922205228699852,-92.94257748384867,0.03764683676405504,0.005548529917308197,0.018570905854475593,0.0,0.0,0.0,,,none
0.04755899999999258,28.146979634997454,-21.965731904993255,-92.83989772851788,0.03342087737476033,0.004980840344953968,0.01643953765958044,0.0,0.0,0.0,,,none
0.05706699999998932,28.07915823547361,-21.976614510322282,-92.76617174644646,0.013861207187840674,0.054593007565382934,0.030032271441105582,0.0,0.0,0.0,,,none
0.0665649999999971,28.019056068151716,-21.949404672672003,-92.72573688994254,0.006612196889509949,0.05898798498690198,0.0341098663910589,0.0,0.0,0.0,,,none
0.08559499999999787,27.91474760105492,-21.810922826805704,-92.70976856116243,-0.018615668835098156,0.014414490174741923,0.03377944343738204,0.0,0.0,0.0,,,none
0.09510099999999966,27.870376358313084,-21.751187141546623,-92.7077835694985,-0.017071400842489672,0.013208340508615893,0.031046650616243874,0.0,0.0,0.0,,,none
0.1046089999999964,27.832273301624898,-21.714497424690993,-92.69090323784269,0.009544846927657735,-0.018042288735854606,0.04732810795258208,0.0,0.0,0.0,,,none
0.11412599999999884,27.797108893716146,-21.70311098272621,-92.65555198618488,0.012302550890116429,-0.028031702092369565,0.051453531816927064,0.0,0.0,0.0,,,none
0.12363599999999053,27.7687377228279,-21.715477275367178,-92.61000072754777,0.014929525808539455,-0.0290585489543179,0.05254398458116371,0.0,0.0,0.0,,,none
0.13315000000000055,27.743947625956533,-21.73704618402271,-92.5666122502718,0.01340038379453711,-0.02201588208044362,0.05516901820998131,0.0,0.0,0.0,,,none
0.1426659999999913,27.72230163067483,-21.751418544530537,-92.5374900290274,0.011000866705849507,-0.010775017423368876,0.050767529073721965,0.0,0.0,0.0,,,none
0.15216900000000066,27.70660427318497,-21.750409071606224,-92.53520585467726,0.007412481659614581,0.0161942640583806,0.04137248888071784,0.0,0.0,0.0,,,none
0.16168399999999394,27.695858267656128,-21.733148203875277,-92.56031296904914,-0.017351176268471442,0.013439509086415153,0.031737095830875646,0.0,0.0,0.0,,,none
0.17118899999999826,27.688964738851986,-21.696749124307814,-92.60413728193829,-0.015247399991942806,0.011813703157762222,0.027919630756273777,0.0,0.0,0.0,,,none
0.1807019999999966,27.69248381408035,-21.64875395059041,-92.65635453033185,-0.011402823774524925,0.008832166791700225,0.020896805790255497,0.0,0.0,0.0,,,none
0.19021299999999997,27.707557438503304,-21.607287955367603,-92.70775817901904,0.0,0.0,0.0,0.0,0.0,0.0,,,none
0.19972199999999418,27.732416882662303,-21.583481320612083,-92.74863180350322,0.0,0.0,0.0,0.0,0.0,0.0,,,none
0.20923700000000167,27.76499718530148,-21.575967324237606,-92.77295131554754,-0.0011952962679977017,-0.02467838218161208,0.009770330913274734,0.0,0.0,0.0,,,none
0.21875,27.805757922455115,-21.58227744581941,-92.78290702165158,-0.0011618578148976653,-0.0239020533795994,0.009466104867981726,0.0,0.0,0.0,,,none
0.2282549999999901,27.849816739652688,-21.596932761318968,-92.78398891633734,0.0,0.0,0.0,0.0,0.0,0.0,,,none
0.237764999999996,27.88865398912388,-21.611737652632026,-92.78049698626289,0.0,0.0,0.0,0.0,0.0,0.0,,,none
0.24718699999999671,27.916498644930765,-21.61820733754313,-92.77491769101704,0.0,0.0,0.0,0.0,0.0,0.0,,,none
0.256779999999992,27.92964015652485,-21.61422054384852,-92.76825104623686,0.0,0.0,0.0,0.0,0.0,0.0,,,none
0.26630199999999604,27.925626997789106,-21.605007121291738,-92.76013883575936,0.0,0.0,0.0,0.0,0.0,0.0,,,none
0.2758089999999953,27.913672457305676,-21.59713843936966,-92.75254289356843,0.0,0.0,0.0,0.0,0.0,0.0,,,none
0.28523799999999255,27.903750873706684,-21.599734151996515,-92.74860335815161,0.0,0.0,0.0,0.0,0.0,0.0,,,none
0.29483599999998944,27.903818722593897,-21.61734918651643,-92.75417151640022,-0.0012985711728689434,-0.026993719104581128,0.010709396124186563,0.0,0.0,0.0,,,none
0.30433699999998964,27.917040116697674,-21.65035028472733,-92.768852971836,0.023683454626157348,-0.026000660682293376,0.024056138882460634,0.0,0.0,0.0,,,none
0.3138569999999987,27.941560044813436,-21.68864476499725,-92.79017834666853,0.026728843323870505,-0.020923162731391852,0.023614622667325336,0.0,0.0,0.0,,,none
0.3233589999999964,27.976703189062164,-21.72163815790213,-92.81194171317088,0.029102174098403343,0.004250778097392792,0.014240848370939216,0.0,0.0,0.0,,,none
0.332492000000002,28.018674239597356,-21.74319229561944,-92.82968324616593,0.027312745965063775,0.003995101778716509,0.013385889189477806,0.0,0.0,0.0,,,none
0.3423749999999899,28.06170617491832,-21.75016803615404,-92.83898382097668,0.02395092086781105,0.0035092176871205296,0.011758445545684183,0.0,0.0,0.0,,,none
0.35188999999999737,28.104053062029028,-21.742356879150535,-92.83946820981329,0.0,0.0,0.0,0.0,0.0,0.0,,,none
0.3614059999999881,28.14387173002497,-21.72853587638933,-92.83584414395618,0.0,0.0,0.0,0.0,0.0,0.0,,,none
0.37090299999999843,28.179673215126588,-21.715648567456455,-92.83462951422696,0.0,0.0,0.0,0.0,0.0,0.0,,,none
0.3803319999999957,28.211912562195575,-21.706728926327262,-92.83961242874423,0.0,0.0,0.0,0.0,0.0,0.0,,,none
0.3899210000000011,28.241466658081347,-21.701619937735405,-92.85021602748883,0.0,0.0,0.0,0.0,0.0,0.0,,,none
0.39944399999998836,28.262306727278354,-21.698385823849836,-92.86109651493523,0.0,0.0,0.0,0.0,0.0,0.0,,,none
0.40896800000000155,28.275889470917377,-21.698345482910188,-92.86738465282885,0.0,0.0,0.0,0.0,0.0,0.0,,,none
0.4184759999999983,28.28485675675608,-21.695347840788735,-92.86612571519169,0.0,0.0,0.0,0.0,0.0,0.0,,,none
0.42797399999999186,28.295378691844768,-21.690838399275563,-92.85755047631406,0.0,0.0,0.0,0.0,0.0,0.0,,,none
0.4374859999999927,28.308065582979552,-21.683746158717142,-92.75490593318791,0.02275272499660475,0.003400683828974438,0.011293031986532554,0.0,0.0,0.0,,,none
0.44699099999999703,28.329338618296465,-21.675803159614937,-92.63204987245855,0.026780107259949597,0.004064186666585809,0.013308759861284686,0.0,0.0,0.0,,,none
0.456514999999996,28.361772202134603,-21.672965620036727,-92.58457416462396,0.02764907766547669,0.00422617335497139,0.01376108925636584,0.0,0.0,0.0,,,none
0.4660159999999962,28.40869270955095,-21.6823012987825,-92.58838766360194,0.02771843461407291,0.004247780526849925,0.013821318402587988,0.0,0.0,0.0,,,none
0.4755349999999936,28.46502839943552,-21.702389856181355,-92.59410902055062,0.02805577217912335,-0.02098233520118292,0.02474566228311761,0.0,0.0,0.0,,,none
0.4850359999999938,28.52005327120372,-21.73739274943131,-92.59728339873041,0.03260253855557765,-0.035018582810850275,0.03334018096436998,0.0,0.0,0.0,,,none
0.4945549999999912,28.608007308427144,-21.803750953832733,-92.60947207653797,0.04521993636699235,-0.047736914610274316,0.04606595974404941,0.0,0.0,0.0,,,none
0.5040630000000021,28.7494673075505,-21.884856899730227,-92.64879331386189,0.0940095541530126,-0.05465750653200268,0.01325240897375619,0.0,0.0,0.0,,,none
0.5135729999999938,28.98106263325248,-21.968744491676294,-92.76385223342646,0.1566613918396516,-0.020014733508064333,-0.030831809691929425,0.0,0.0,0.0,,,none
0.5230880000000013,29.29694293626226,-22.031824578940196,-93.00855699530095,0.23050507568370016,0.07693138920217525,-0.0953301684772459,-0.04224942242088779,-0.012061737191077327,-0.03240339740648427,,,none
0.5325309999999916,29.273148735156497,-22.31794896276954,-93.24741641168133,0.2875019206053138,0.18144859339335886,-0.20095929322096182,-0.06528082752594042,-0.0019629303708078153,-0.05658567404046976,,,none
0.5420389999999884,29.2719806348447,-22.67181144209234,-93.5195719099781,0.3059011454887034,0.25194489550349763,-0.3650846733752614,-0.07907981787638312,-0.005099003813276492,-0.06148069122631064,,,none
0.5515350000000012,29.518824585111858,-23.031398250044212,-93.73408482886114,0.31405221693161844,0.3434153297097898,-0.6054423877361713,-0.08309524685444049,-0.05042332455594764,-0.03062778910128077,,,none
0.5608639999999951,30.11475884919983,-23.29457782720242,-93.83523145699077,0.3814026717888251,0.20932383909336838,-1.0868640761744761,-0.06809456337978702,-0.11555988329937175,0.019784807084621898,,,none
0.5703639999999979,31.128873954499245,-23.39774286960016,-93.8070619057911,0.1466853205694449,0.21324339477626766,-1.0061783626781564,-0.04112527798107449,-0.1942900435030353,0.0790998489516474,,,none
0.5798839999999927,32.38974197398435,-23.346915956624574,-93.68803086518749,-0.017080202291713212,0.08542060923834567,-0.9842272800621648,-0.01283640789679304,-0.24165318872716382,0.11681928961804446,,,none
0.5894669999999991,33.8145920051815,-23.277073893218915,-93.58792181977829,-0.06622149121155699,-0.1745964111862307,-1.1214092533298272,-0.010234625685031471,-0.27219099995840906,0.1256044852445932,,,none
0.5990809999999982,35.45622236392268,-23.31342493371506,-93.58495816635593,-0.1808848825054479,-0.07644271217634913,-0.7045079214830693,-0.03340581242364861,-0.31078379983302257,0.12307195658500979,,,none
0.6084180000000003,36.58313859849446,-23.466725316428274,-93.73202887429363,-0.21628149731743668,-0.1730176671233736,-0.8737702542119572,-0.05091528165352118,-0.2147146083997752,0.05253300777338183,,,none
0.6274370000000005,38.07278065414108,-24.02727250998487,-94.22308792997653,-0.29517742106151,0.12715743091508713,-0.9710442685460117,-0.07826659156664358,-0.13141109685471133,-0.003579498809196089,,,none
0.6369409999999931,38.20328190772803,-24.290730251318507,-94.45128490906083,-0.3119380921643886,0.2055707310759014,-1.0378665181976652,-0.06129479813969032,-0.029906623124495286,-0.042598243783415694,,,none
0.6464579999999955,38.005610189333325,-24.417153863472816,-94.55323307362188,-0.1943184228833381,0.18005126988600595,-1.1220508897760881,-0.029354877748371328,0.027814448234647765,-0.044293806727409527,,,none
0.6559529999999967,37.588032155109225,-24.42196450975816,-94.54954627806828,-0.13675099349259612,0.16954433235990737,-0.9231582600719938,-0.001950518821780092,0.06586989047355808,-0.041346485653784584,,,none
0.6654789999999906,36.93527357476059,-24.373137190950075,-94.51940513208474,0.002935472603591382,-0.03929933933553267,-1.0031880310765968,0.012004209144325826,0.10782601723233044,-0.0554128918963875,,,none
0.6751730000000009,36.374554807248494,-24.358326893520374,-94.51876311617342,0.06549668035310156,-0.12432708217841514,-0.8801863977585904,0.0037569192227117397,0.09169902121891102,-0.05359800492999705,,,none
0.6846769999999935,35.88562086428588,-24.42802173655951,-94.59686894127258,0.11560536393277024,-0.12473062902176671,-0.8297004305897592,-0.014188635207661508,0.07999774554699499,-0.06341414103608362,,,none
0.6940039999999925,35.434756767402696,-24.614111573338434,-94.78556471111177,0.11567583111417583,-0.1311868850894392,-0.998909683342395,-0.03789979128674939,0.07494683627677597,-0.08251023765634569,,,none
0.703528999999989,35.36145336961201,-24.885578153688616,-95.0272814857766,0.10891260343210858,-0.01694721142544925,-1.0233585927288156,-0.060554714363926496,0.007976947081589622,-0.061746804243811876,,,none
0.7130349999999908,35.496942266824284,-25.135151042686864,-95.24896430888626,0.08239998402980536,0.1846557397976191,-0.8987723997355523,-0.05952769446043478,-0.029972969268509,-0.04009189736342063,,,none
0.7226179999999971,35.58097994731776,-25.28478705406928,-95.40288887643807,0.06182504819239681,0.1344470817745641,-1.095642800883946,-0.03881355606293165,-0.022342980499496685,-0.030807359270941862,,,none
0.7320549999999884,35.85899983094102,-25.33981512973119,-95.45897870673105,0.013477684275630997,0.15315248070239662,-0.9797863543896075,-0.023259165652512064,-0.059036407652001424,0.0053940957451819455,,,none
0.741745999999992,36.062764155837364,-25.326453781147634,-95.44878886069552,-0.044728000977147776,0.03908656193528033,-0.9564203910455203,0.0,0.0,0.0,,,none
0.751072999999991,36.24467856520736,-25.308969755899575,-95.41239570833686,-0.06029059052370423,-0.11512491231562515,-1.0141018559769166,0.0,0.0,0.0,,,none
0.7605829999999969,36.52526490528047,-25.370142920181472,-95.41068066110677,-0.06439837503830832,-0.12472537176842485,-0.9267107766470808,-0.02437720917988534,-0.0594309533266202,0.017149884279267873,,,none
0.7702709999999939,36.7520760467384,-25.539991571137474,-95.50060323160842,-0.060077081030893,-0.07762087294995249,-0.879460627882641,-0.0451208294623473,-0.04764799153787063,-0.005714576493604581,,,none
0.7796159999999901,36.84714125465421,-25.772114524859646,-95.66981120460882,-0.06645225322261691,-0.025235541817476496,-0.978065970416428,-0.055309143213237856,-0.02263019798231089,-0.03283237579623916,,,none
0.7891319999999951,36.9432953519743,-26.00144492565905,-95.86449215570798,-0.0586304874726463,0.09112833396996466,-1.0017546034298621,-0.05482757896070064,-0.02270515072710687,-0.037733151233766714,,,none
0.7986289999999912,36.963671577484064,-26.170854699219433,-96.04587868833259,-0.05820131741530013,0.1670058612792349,-0.9976131786318663,-0.041550859909757196,-0.010212174870530584,-0.04165340582794489,,,none
0.8081449999999961,36.89215792994683,-26.247762366446693,-96.17208989151285,-0.039322508014509726,0.12849879670617612,-1.0330748159773777,0.0,0.0,0.0,,,none
0.8176500000000004,36.79330792617145,-26.238699760065803,-96.21976997747055,-0.028929839299986326,0.07515652155939381,-0.9607443609469214,0.0,0.0,0.0,,,none
0.8273389999999949,36.63808154180669,-26.204866080116677,-96.22273340280141,-0.006640579091602851,-0.03697814664961293,-0.9562498910708899,0.0,0.0,0.0,,,none
0.8368589999999898,36.52082583302109,-26.228167048817618,-96.23331699582499,0.00676553582727774,-0.10641393715626486,-0.9250299414881049,0.0,0.0,0.0,,,none
0.8463670000000008,36.45828814458848,-26.339557030734138,-96.28329481074263,0.010130833118440114,-0.10386623070317709,-0.9016314939641377,0.0,0.0,0.0,,,none
0.8558659999999918,36.44149906552346,-26.525308194846332,-96.31563150465371,0.014810748462930044,-0.05512452537380795,-0.9447859117300786,-0.04422455523746591,-0.003007837781254526,-0.028564438543215085,,,none
0.8653789999999901,36.495548086113985,-26.744159520229434,-96.3946638939502,0.0035030746347560608,0.04621671262828369,-0.9574241127653729,-0.05220846466431785,-0.01486620861190134,-0.030494948271030758,,,none
0.8747039999999942,36.5587994173191,-26.930716670568934,-96.46888376548925,-0.011655437505923195,0.1130359059343528,-0.9883679107181804,-0.045974028865278266,-0.017165642676828446,-0.03141633588666162,,,none
0.8842199999999991,36.61183942301624,-27.030467515587823,-96.50261530044844,-0.030218526713907602,0.12858407823198523,-0.9979053601193225,0.0,0.0,0.0,,,none
0.8937349999999924,36.62912832702299,-27.040778302272862,-96.47468998247606,-0.045813821131263054,0.08962967052216406,-0.976261568363175,0.0,0.0,0.0,,,none
0.9034209999999945,36.59099031113527,-27.009422350190572,-96.40436039757864,-0.05903132910653959,0.0017415564932895915,-0.9531101034034694,0.0,0.0,0.0,,,none
0.9129399999999919,36.51960186407879,-26.994504124298352,-96.3054116831699,-0.06664133575179249,-0.06608349007845915,-0.9051744078483656,0.0,0.0,0.0,,,none
0.9224379999999996,35.73258482440785,-26.560003520788843,-96.10049132504152,-0.5382131711054239,0.8971050217815668,4.441330446401028,0.09386551319090855,0.12052019142145758,-0.061226807174933444,,,none
0.9319500000000005,32.421447719766206,-22.311722152511226,-97.48485703804481,2.085954900536814,1.4766527086283137,9.141440180551163,0.90690360325228,0.490759549403032,-0.5814923751322164,,,none
0.9413709999999895,18.70437865920963,-20.569251644120175,-98.3321527210066,0.8269342247349253,-6.664724221204926,-5.329673359703075,0.6849861866063663,2.4769393860894025,-1.17863421673529,,,none
0.9509839999999912,9.417518193314685,-18.810278553949946,-96.11779126252382,0.7607680146513859,2.21416958409852,3.417416299536537,0.5588866698243309,1.684587193346563,-0.1645368807821593,,,none
0.9603819999999956,3.03197024841986,-21.10611695201007,-93.00499378426075,0.5698054613981721,-1.0367208903770053,-1.8145828000227648,-0.3732343306873563,1.2271105184603575,0.19819603700510843,,,none
0.969900999999993,-2.5106243207236743,-21.53557699503413,-89.53805053545503,1.6651614250978222,0.40148002567382973,-2.872273725551173,-0.0740463474790805,1.0275669233469094,0.3067544774054258,,,none
0.9795269999999903,-8.104125127753317,-16.67908718387858,-87.38409375875531,1.3566951209440425,2.680665881380726,1.7655527190701117,0.931067887069008,1.076081874234096,0.06981217952350123,,,none
0.9889289999999988,-9.506430849833452,-11.797203734958936,-86.43420141267218,-0.609734606402122,2.470385048664004,-7.622941362027629,0.949060864496517,0.3174004373958506,0.10283950075439283,,,none
0.9985379999999964,-9.638809904079325,-11.52529559142507,-86.027924694332,2.7101208206954386,0.6105257168862296,5.655560227641465,0.04062183326660098,0.02167587160975543,0.0375658900560071,,,none
1.007949999999994,-11.198049567176751,-6.536518007870949,-87.60027743087907,-1.4894094932036963,-2.593029171144957,-4.615754917754676,0.9671723354105395,0.3580620643357835,-0.4111144784082479,,,none
1.017563999999993,-9.629647460831938,-0.34585759949094713,-89.31030432435922,0.37112330874645016,-0.570959147882284,0.16849074974230557,1.235701202916963,-0.28400581072065084,-0.37794456699049833,,,none
1.0268990000000002,-10.136849148479536,-0.30470544899088875,-89.75703477317805,-0.3963016277469468,-1.7080789950466302,-1.7008129664010119,-0.005281747564187096,0.09500124924555482,-0.14512982819381953,,,none
1.036412999999996,-11.536195235278793,-1.3441672585213875,-89.23447209036514,-1.1768697114438096,-1.9415847584272643,-0.1365833264508509,-0.22345036097963378,0.271203814313898,0.06387899784502014,,,none
1.0460920000000016,-12.154650032419337,1.2258633526880227,-88.45277863450994,0.12778202934544272,0.4815159808470858,0.6638126562421799,0.49938749020857565,0.12797057076728732,0.12603758801482554,,,none
1.0554179999999889,-15.104108268071759,3.72213163394992,-87.59532166443044,-0.800932144865239,2.6870184224814384,-1.8227541684127513,0.46613778965895664,0.6003465484276889,0.1762970923246896,,,none
1.0651219999999881,-18.328397953048395,4.501275660502673,-86.73174735926283,-0.020233888587039436,0.9084453763429641,1.2188148405822967,0.11123895618742763,0.6437215994464612,0.20809156142091306,,,none
1.074631999999994,-21.61862604321058,7.856276408445087,-87.20651511172441,0.33014669515072986,0.571737988895715,-0.6181975511965295,0.6230207938663311,0.6829699730418035,-0.040244099464993924,,,none
1.0841429999999974,-26.54227760757592,12.900543273654593,-89.21464253783633,0.6354640881765241,-0.570949211840443,0.20379910548768096,0.9651618978265721,0.9949613782793557,-0.23987124551082803,,,none
1.0935709999999972,-31.370359789858092,16.31719240154622,-91.35757390490437,-0.4417973330370508,-0.20860365525963764,-2.000965808979654,0.6754500544570652,0.9256294865184116,-0.18499070610245,,,none
1.102979999999988,-36.084041970873606,17.435993468562124,-92.78971393807932,1.0200083201457322,-2.0444998142009605,-0.8945393864675553,0.24354237743317975,0.8879349374145193,-0.011887820728429444,,,none
1.1124999999999972,-41.692717621982204,18.623099605976552,-94.626616061769,-0.017833752227994285,-1.357739938042165,-1.4465618161698393,0.29328014670649066,1.0437053975980315,-0.018224755655357444,,,none
1.1315259999999938,-50.25612912947024,20.03633431899148,-96.48447012083584,0.9639495337035081,0.4096255741473769,-0.40908101084787085,0.1257591538792435,0.7100353001126558,0.21780037351992512,,,none
1.1410369999999972,-54.40698462809589,20.989178924206346,-96.94857871958409,0.04510508791920544,0.6922324530250249,-0.7024551825694461,0.2684574793488637,0.7436368203528182,0.2021495300273917,,,none
1.1505539999999996,-58.50930845212189,23.532101616720134,-99.05462725170321,0.8571190273529993,0.3781065252648686,-0.48475776155233863,0.5979766793766719,0.6747494268688979,-0.10613395540487636,,,none
1.1600539999999882,-63.04456999973189,26.640280779097,-102.05716560946694,0.14170424736182338,0.6453643300748387,-0.8930326756332011,0.750439520128463,0.6873441724307882,-0.21134907412431211,,,none
1.1695709999999906,-67.10001770738756,29.161047480361525,-104.50357251528054,0.09601057757496373,-0.43348601726458014,-1.1818193349657498,0.6443088162926054,0.5751405654262048,-0.10505227914812916,,,none
1.179081999999994,-71.01654403625335,31.179235633754594,-107.27860261121468,0.16562028850037905,-1.0985460373402247,-1.567643244898745,0.5626895139429354,0.5339691248603861,-0.15656821434157486,,,none
1.188676000000001,-75.33837285539147,32.52316722584428,-110.60609774806727,-0.37212968866356727,-0.46022050963452077,-1.4623769378016367,0.4816815380218428,0.600413374936401,-0.20433178350880268,,,none
1.198171000000002,-78.98200202430351,32.755017872509555,-112.62323025710806,-0.07779450778749054,-0.08551633526731438,-1.161807248007905,0.25838229336446566,0.5464178502081393,-0.004956727925768944,,,none
1.2075959999999952,-82.39730574085927,32.271853558503636,-113.58898781326685,0.43062449388858587,-0.1569541863852275,-0.8038233399442093,0.126689411504289,0.5604934239338091,0.18001615458092549,,,none
1.217297000000002,-86.49316542974842,31.799842850396576,-115.45876556751853,0.44745539976788723,0.028234873252712053,-0.5363906911863875,0.19234700100253904,0.6636638777142152,0.0670235318423904,,,none
1.226815000000002,-91.280743286876,31.657637497657877,-118.3972038984227,0.6681733944090409,0.3526418508996561,-0.35458953639444146,0.33393540824543866,0.7316329192135987,-0.07729955271977973,,,none
1.236305999999999,-96.4100166974108,31.94344771234286,-121.38445005250088,0.5316750821240046,-0.06925323935226162,-0.6261393866725213,0.4749974396343004,0.7198046589064697,-0.04968846026581718,,,none
1.2456359999999904,-101.8710243928326,32.589705755395954,-125.06606506073149,0.25762648247280473,-0.5881608248988464,-1.215985154909134,0.6065737978783955,0.6929536487596336,-0.11072411646667706,,,none
1.2552309999999949,-107.92728982792799,33.14495487552362,-129.6455678112446,-0.015263988195438118,-0.6022641131340637,-1.5548110093853016,0.6981882877098241,0.7323744057991403,-0.22212783976551212,,,none
1.2647289999999884,-113.74908310468669,33.38029740758138,-133.7645211866024,-0.464157649335567,-0.19365358778659023,-1.3936500525503246,0.6757230930208438,0.6863017211694468,-0.14938258296495616,,,none
1.274257999999989,-118.61147238072193,33.28311798580692,-136.40622123591942,-0.08044949032010751,-0.13633286843517683,-1.5012278654917517,0.5547228741403026,0.5778325636273564,0.04299992137375468,,,none
1.2837589999999892,-123.02890231594263,32.52645251596635,-138.22638996887275,0.10232965608386778,0.028501489033779828,-1.3091807423010153,0.43638111405177066,0.6041653579411731,0.16039819607212677,,,none
1.2931949999999972,-127.18467321441295,31.04365819739072,-139.8225477240928,0.41008587846236816,0.3432880199327847,-0.8885237060019543,0.3332855196036302,0.6771383593756239,0.1643395319906489,,,none
1.3027039999999914,-131.10371919120698,29.348915473355927,-141.24744023664576,0.6489072977925562,0.2756869855547867,-0.8473036658478155,0.3029073689615703,0.681812392427606,0.1707977306401401,,,none
1.3122139999999973,-135.1141894026961,27.690473575108292,-142.97077402247965,0.48372212311055346,-0.09456078117237034,-1.0287452751574304,0.3483221891005051,0.6838020009883705,0.09862680568402987,,,none
1.3218009999999936,-139.49489958279807,25.892970839414,-145.6631884157494,0.20105440132565522,-0.34781891990305974,-1.3284101182549568,0.42167769722901455,0.7372276762115836,-0.09273094580666147,,,none
1.3313069999999954,-144.15889008807142,24.13995249374749,-149.04938316368924,-0.23349051020787867,-0.3428436775594545,-1.2467967397065856,0.5189110432367242,0.7399586012431734,-0.23805161899700275,,,none
1.3408259999999927,-148.5957346278633,22.812469478234433,-152.35662452592257,-0.43393123291531893,-0.31226775117744104,-1.3244143047552854,0.5759502682045242,0.618322140909426,-0.26829444395326213,,,none
1.3503369999999961,-152.75470293986027,21.64184805405828,-155.175547465709,-0.3713874379422333,-0.2100472123447918,-1.4763547233186316,0.5830131166436534,0.5387554492614783,-0.21736164592989224,,,none
1.3598479999999995,-156.70647346295178,20.171927298328818,-157.2960779345387,-0.033488960658065496,0.05468100805848107,-1.1905827946326273,0.5533124391881886,0.5546910366436264,-0.10840478175904882,,,none
1.3692839999999933,-160.33026387716978,18.536210575437497,-158.4236335889556,0.404064833233671,0.2443031329201393,-1.0653739509213007,0.506499846220724,0.5485330241351425,0.051392488754191466,,,none
1.3787990000000008,-163.78174180864102,16.768835561225217,-158.69037879052692,0.5741395124908044,0.19180383116608438,-1.176298523945283,0.4798255675136278,0.5570918389329143,0.1891134384703992,,,none
1.388393999999991,-167.2177797247667,14.528197974195853,-158.59092040820678,0.4565280900006193,0.0495187371449119,-1.272276150616222,0.4497390496840236,0.6463177466858836,0.21118912167343815,,,none
1.3978839999999906,-170.78548850871013,11.856760656310135,-158.78404003957345,0.17492597108238916,-0.0846783226328127,-1.3231938604038065,0.45021602722773546,0.7380065538623807,0.12983168899288206,,,none
1.4073980000000006,-174.47970130279106,9.204736304577258,-159.5349383545973,-0.2562428008173196,-0.21933772238351965,-1.2662156656279802,0.4877501686280418,0.7416645036630892,-0.009976705661365826,,,none
1.4168239999999912,-178.11454536034827,6.695809034611806,-160.88185962818702,-0.6551649675262343,-0.25820275267634135,-0.9813374107733837,0.505247280249809,0.7032676595532443,-0.16417722680433192,,,none
1.4265350000000012,178.67082674268786,4.774088891403432,-162.58528222576678,-0.4273713385851303,-1.515277777163526,6.251946518505108,0.48453860036387714,0.5526010731667718,-0.2723339731214302,,,none
1.4360409999999888,174.9280894899735,7.762527303132491,-164.54401347026354,1.4543005982317814,3.9007201729087617,5.126928034216426,0.8802284720650667,-0.376538083584672,-0.3069829407074825,,,none
1.4453519999999997,162.10727736667266,9.604367051234684,-165.49760502601694,0.5400882144446063,-1.7191660342274044,-9.200280936430385,2.5430700640197665,0.28612368808172484,0.20626885538643358,,,none
1.455059999999989,164.51542028185193,1.6667572063217522,-164.5803119548188,4.058797470804222,1.0632572116204195,5.358691264639845,-0.8747470390407138,1.3986570074306897,0.17644589900351185,,,none
1.4644789999999972,162.42703117684752,0.7718327927173734,-164.42967199119983,-0.5875087080712222,3.8954544232034656,-3.4760646730912765,0.35231570069860957,0.2699600686301716,0.05977879892859839,,,none
1.4738989999999887,155.6988512167707,1.015431052716597,-163.81271312611986,-2.3355407944900124,-3.494855639471725,-0.9541029532270852,1.3065163973633298,0.30604623203310816,0.16978391850350177,,,none
1.483600999999993,158.63798530950228,-3.5721736268305593,-161.57778893718356,-3.5022637634704905,0.5984461804624946,1.1423695471795712,-0.8362797135640259,0.6886019989904708,0.4907204826848629,,,none
1.492993999999996,157.22115797454356,-5.431199113524953,-159.9852990950388,0.6437694277525092,0.9315921100627376,-2.1064141136692696,0.14362585040488907,0.4299986173227923,0.33929175357996366,,,none
1.5026049999999884,156.88308402569248,-0.8004062779130726,-161.70074186607093,-1.5623179119663337,-3.444623219143561,2.6912618199083407,0.36624135103060923,-0.8677815100653973,-0.35494845338347186,,,none
1.5120179999999976,159.19578822973727,0.1820186430319114,-162.94674613992726,-0.5966089962373262,2.8696985391425405,-6.33301043916963,-0.3835096301796042,-0.34272634334972163,-0.2795017027940519,,,none
1.521642,157.7916625686853,-2.8923929352780933,-163.02157712210348,3.0191242431457934,-0.6319123522739737,1.7794106488995651,0.08615258018097349,0.6566438205680408,-0.02100881697467611,,,none
1.5310399999999902,157.38251284831733,-3.6983589902080425,-163.8944283956171,2.3626965663226667,0.6190115901444763,-2.4334095589399727,0.029738572578743152,0.16382997913597502,-0.17884569728494848,,,none
1.5405429999999996,157.441901871672,-4.503683933582708,-164.3269323035678,0.17167180932032547,0.7737372696358712,-1.9373981680728836,-0.05836419903003785,0.13771073541022724,-0.08501907410673291,,,none
1.549982,155.57826449532976,-8.031547884773463,-163.05718884077908,-1.112505985989027,-0.5331645410595958,-1.3515479761617053,0.15600518210014683,0.767696649197849,0.23728608890432457,,,none
1.5594880000000018,153.87040506161264,-12.048618129975285,-161.10949354008665,-0.10554400060787293,-0.26468686697611354,-0.8693373091490784,0.07269816832475547,0.8544700972259968,0.3756590930310471,,,none
1.5691829999999953,151.94119459855924,-12.181114464799187,-160.430197543357,-1.556058725732189,-1.0365067804184254,0.2957735331409667,0.3460333464760398,0.13481988205159917,0.07730289592424737,,,none
1.5785169999999908,149.44988313663816,-11.00195723644806,-160.26957691360155,-1.7002844285353023,-0.14848664767230293,-1.9376686442510436,0.5375134461628415,-0.07225549213208364,-0.06837170968395764,,,none
1.5881919999999923,147.2035873128645,-10.727913417363395,-159.8903575686171,-0.0050255771808653486,-0.4840589343428748,-0.3513682604141462,0.4318889684926238,0.08466016730518053,-0.00967656258163291,,,none
1.597619999999992,144.77741244134745,-10.613372786569878,-159.8696878463265,0.9683160698283173,0.8360638708544509,-1.7439846635765568,0.4539371186453785,0.12848823998744616,-0.08716471558672342,,,none
1.6070390000000003,142.21835509827122,-10.425963275989918,-160.39668115261242,1.43011000453408,0.2660468443492211,-1.2305572658506452,0.4840824093385748,0.12183368829860679,-0.20096926174861704,,,none
1.6260520000000014,137.62597165723372,-14.513414434689839,-159.11789291403446,0.22181365259814134,0.586575075228218,-1.2270458941496245,0.25766218376122674,0.721462961809438,0.16792271272014714,,,none
1.6357459999999975,135.10144583804973,-17.2788322802174,-157.79455874034832,0.03240228324013053,-0.5362190671855057,-0.3729292200884255,0.2471414936305616,0.6792020812627281,0.15008803306950286,,,none
1.6451009999999968,133.5431849730425,-18.686908519888707,-157.24833336875153,-1.049654427885767,-0.1157437051389362,-0.554324988629484,0.16397671914992618,0.3599351990883946,0.02199494220497618,,,none
1.6545969999999954,131.76573495787338,-19.391093711031466,-156.72069835666946,-1.3566960137695896,-0.41294055562435683,-0.40894970292237104,0.25196407519276964,0.24725900184544544,0.001415685887812455,,,none
1.6642949999999956,130.0154396603032,-19.667967903381786,-156.00705219928585,0.008225078725500986,-0.3607828414412988,-0.6202402940776197,0.2777072484436251,0.169259813285973,0.03429886565926479,,,none
1.6736319999999978,128.78217979964913,-18.905763230396825,-156.12984364338496,0.3408871936789881,0.19568081471108767,-1.0988929483748746,0.2720827608517243,-0.058627245745517316,-0.10966643365151933,,,none
1.6832390000000004,127.37644735379463,-18.062983355492747,-156.3896446434499,0.3544883448426642,0.45419307690453115,-1.5977653471402333,0.3092766333223076,-0.060537410595400354,-0.14515500271064205,,,none
1.6926729999999992,125.63959406100318,-18.465812298124547,-155.52376538248467,0.6790105796919652,0.40237346390584616,-1.568982021176679,0.2657224791625296,0.1947207383811621,0.06019560944035027,,,none
1.7022499999999923,123.50614731083034,-19.867928549200137,-154.0506248845421,0.43213965186990727,0.4757411579883148,-1.5283416977309259,0.24277604094469826,0.41225069409276577,0.1651828683027905,,,none
1.711748,121.25893677074542,-21.556742881039405,-152.8143993542895,0.0539031977994228,-0.127197765411554,-1.086827272303899,0.22263360724928485,0.4770391827980328,0.10620805462834917,,,none
1.7211980000000011,119.16641089735418,-23.34706240178321,-151.71913692059817,-0.9558762787188029,-0.14695017575544994,-0.7496715786637136,0.17326709814762722,0.483944240337695,0.07818797719141875,,,none
1.7308790000000016,116.79247644608529,-25.04452465984765,-150.42833409474918,-0.6625860312181134,-0.4628577680788056,-0.4892509770480486,0.21233763075088832,0.49365212023474814,0.08355122313230776,,,none
1.7403769999999952,114.74830011537435,-25.911437724611577,-149.78633986984684,-0.16101790975095576,-0.4292024971767021,-0.5265745249375738,0.23054573677760323,0.32131422403489024,-0.03669394719050303,,,none
1.7496259999999921,113.09712767432187,-25.748837329763678,-150.02292720091012,-0.17671396433574343,0.14121596327406388,-0.8773341056397144,0.26999375843633727,0.10810014752172172,-0.19650347324158798,,,none
1.759215999999995,111.26999047329885,-25.213689044356407,-149.99583310266993,0.23634653533800173,0.2842078962271321,-1.1598754346127875,0.33559349767681407,0.059542493630228545,-0.1574119388436643,,,none
1.7687540000000013,109.18890896685996,-24.841956124536775,-149.13058176936636,0.5514738811105305,0.541832475807936,-1.4051613725240413,0.3591615479637169,0.11453454090901745,-0.00886285541377163,,,none
1.7782449999999983,106.85617106248431,-24.779358652246476,-147.93608966464748,1.0542003642251316,0.5130340371325575,-0.5582879550336978,0.364027431422077,0.19822552722583806,0.03700984572760711,,,none
1.7879329999999953,96.6477082320263,-24.707978743633355,-145.91890669323243,-4.98557089707748,6.507439697028159,6.3041876242897406,1.5585981615178406,0.988375460355342,-0.4425298318961178,,,none
1.797434999999993,72.12232592722079,-23.633436451845192,-138.06790551902824,-2.9247025704057337,-4.179396271912798,6.081995447860273,3.6518739103029736,2.5751151359013122,-0.43741073323513535,,,none
1.8069419999999923,52.73388357463314,-23.605727830277473,-134.2744576889205,0.3288841132183351,-4.059897270157018,3.9730806318684144,2.560205982907482,2.449896404491835,-0.7929589690865674,,,none
1.8258699999999948,20.964621894284225,-28.99034847979031,-143.35205848419213,0.6169504577455851,-1.850771319790939,-2.234836863072344,1.4212083266764366,2.0942621124175096,-2.3346473107696566,,,none
1.8353089999999952,11.386508975210235,-32.31054598390683,-145.68694374689332,6.089233701415676,1.20523806178231,0.7481517985705455,0.9432311560118309,1.5030381449218833,-1.4786132812669555,,,none
1.8448899999999924,-2.297310385512888,-36.91097879876689,-143.7507666026151,0.5560170273442079,0.20976083257529166,-3.770081295282052,1.2977413796807755,2.0552890326909585,-1.1701544391426855,,,none
1.8543299999999903,-14.2562699345711,-37.71352057051923,-136.50472696005968,0.5518124106697662,-1.1898707926707577,-0.48800579994008636,1.3454892121870836,1.3466962706345138,0.013336601057135213,,,none
1.863827999999998,-25.04005743477981,-31.68923000149343,-128.09778955271952,0.971479029102716,-3.074651611828939,-0.38581414711386974,2.0705616117906067,0.5067975531857535,0.4604628945722221,,,none
1.8734290000000016,-32.79004705487402,-23.296785368777247,-120.72293336994389,-2.4041423316143833,-1.9510036612350805,-3.80689721527184,2.1490760161733284,0.1916383932515193,0.7473969076079663,,,none
1.8829409999999882,-35.68466848147969,-18.877977115736485,-113.1605718571456,0.11206358013493525,-1.79084200211525,-2.1855613389397535,1.0204447143680948,0.0820611212275283,1.2963590313666364,,,none
1.8923889999999943,-37.716902912893396,-18.984594025980698,-107.1369188829272,0.404115178024047,-1.063817457364031,-1.1479491345361386,0.09896823421966391,0.367582839469622,1.0673028120375831,,,none
1.9020560000000017,-38.858260690117355,-20.99749062341591,-104.25676709886687,2.4331036078113297,0.9935143109294863,1.343099670967984,-0.34360407586249225,0.3135705849797283,0.4672486035668224,,,none
1.911563000000001,-36.0610833663884,-23.59223553284121,-104.14034703257443,2.478794380765011,2.367314918425556,5.190556161787584,-0.6423259868886713,-0.3794558037819086,0.13937719491576953,,,none
1.9209919999999983,-25.190650552830935,-23.71533046419304,-106.70599881655785,-1.3381977736611255,-0.9548041819156049,-2.7350259160159234,-0.5525991923598919,-1.9210451954796175,0.18328982972097319,,,none
1.9305809999999894,-16.104350287296153,-22.768122413786447,-109.59835283341464,1.4763452183045744,1.096582099437566,2.8852437529046604,-0.3414696533495581,-1.6519118957685635,-0.04890931493022883,,,none
1.9399179999999916,-13.218333950870226,-22.960084811156488,-110.78834031000275,-3.274501027143913,0.032441009195130585,-0.7255467991039658,-0.23097631911106548,-0.4898415992945579,-0.1613826817741313,,,none
1.9494169999999968,-9.819813660141952,-22.718583032569995,-109.18700071920381,-2.1269338341217896,-0.5330238326412322,0.014227473574846126,-0.18026476689061954,-0.6093765777780794,0.47752495403732914,,,none
1.9591059999999914,-10.146819841445216,-20.860090625785798,-105.44199195715167,0.0901842188286403,1.2424987394671803,2.106544328712741,0.35958380160303344,-0.05520932086600734,0.6574913762386241,,,none
1.9685329999999936,-14.791336846802588,-19.256958338293472,-100.75336819498763,-2.006898826819304,0.1711123023361067,-2.6715404897653916,0.49564898385154266,0.7745160760595503,0.5885731143185113,,,none
1.9781469999999928,-18.209799409248,-18.034572307143854,-96.22503323153308,0.8232935872261957,1.2713645962242084,1.2573807422685634,0.3235143162415772,0.6006543655773837,0.657117779714804,,,none
1.987651999999997,-22.275882592016508,-15.858732599974834,-93.78163333459845,-0.6020756881424103,0.7892849946919418,0.3601810017796297,0.48714074563640564,0.733236583468461,0.21133498919755916,,,none
