timestamp,roll,pitch,yaw,acc_x,acc_y,acc_z,gyro_x,gyro_y,gyro_z,acc_mag,gyro_mag,markers
0.0,2.248267556578745,55.89070439874809,-112.01532334670749,-0.24486630521522434,-0.2911195842866977,-0.3829910039923341,0.03524860316487193,-0.03664399386948652,-0.013134562449927846,,,none
0.00951800000007097,2.4357253838559427,56.13591814352832,-111.8643784008734,-0.2200551341079453,-0.22957648987085882,-0.4486849676879891,0.0,0.0,0.0,,,none
0.019019000000071173,2.6604152341929934,56.340334345974654,-111.66026054511087,-0.1995390461982962,-0.22613249281873157,-0.43476259630209185,0.0,0.0,0.0,,,none
0.02853200000004108,2.900309990482987,56.46632104246473,-111.3992143796371,-0.19385828900466376,-0.2225027903401078,-0.4284264321208235,0.0,0.0,0.0,,,none
0.03805199999999331,3.184309022376106,56.52794186757359,-111.09678852340305,-0.1720670857360239,-0.22025031406735904,-0.4126560041260392,0.0,0.0,0.0,,,none
0.04755599999998594,3.483105821248348,56.551055802955084,-110.80231870567009,-0.14188774751274907,-0.16338373102016587,-0.38024127966220966,0.0,0.0,0.0,,,none
0.05707000000006701,3.772329454275334,56.50730415203289,-110.58079708234037,-0.14529751144976533,-0.16132501429619509,-0.314908627304357,0.0,0.0,0.0,,,none
0.06658600000002934,4.0059271767823095,56.416943698611206,-110.4818139322785,-0.1668878050084546,-0.16936382943368483,-0.2477135261847125,0.0,0.0,0.0,,,none
0.0761049999999841,4.1508502223256105,56.31556046727105,-110.51408424696156,-0.19328686298593994,-0.14943225029524532,-0.1752691290075226,-0.0347116034162499,-0.002548414060498559,-0.03945621367213838,,,none
0.08562300000005507,4.201934371730488,56.18580296667139,-110.65136377844352,-0.22858913994222635,-0.14624338178849713,-0.10092493747724067,-0.03638559258656311,0.009220215703839182,-0.04480939898854879,,,none
0.09514100000001235,4.15493185834523,56.0433542743637,-110.836574502966,-0.26719131509989086,-0.14856711403212372,-0.04045804562597766,-0.03487991052140156,0.020424730626745272,-0.0380701371326862,,,none
0.10463700000002518,4.035435858795232,55.93867372104348,-111.00276257932865,-0.2842776009534992,-0.13858383685537198,0.000906952725290987,0.0,0.0,0.0,,,none
0.11423000000002048,3.4664762225930517,55.63521862063171,-111.49634689596991,-0.28035706200672766,-0.14585743488292133,0.027505473908819578,0.0,0.0,0.0,,,none
0.12374599999998281,2.8824245831888837,55.355196858561435,-111.88192299509508,-0.2627944597157089,-0.16706537262688312,0.027932729537767396,0.0,0.0,0.0,,,none
0.13324599999998554,2.3145857940030394,55.077863798544705,-112.18495366895509,-0.23382835131451207,-0.20948729227924803,0.01766735487971456,0.007095892470709302,0.03685150392928642,0.03588891629451977,,,none
0.1522700000000441,1.2316556178101312,54.49393945611252,-112.67449916917614,-0.15227103225912725,-0.2556562108689375,-0.007963358214306302,0.01158824177476739,0.052318483970622325,0.04305737326403506,,,none
0.16177800000002662,0.7389264956457487,54.15774420841451,-112.90067416344792,-0.11623671988207898,-0.2673709210952509,-0.002150314491420857,0.007230530223488689,0.05806188926364936,0.03526450905379013,,,none
0.17128500000001168,0.3042765128016685,53.83550244521464,-113.15830610341874,-0.10414655532050347,-0.2404974233213115,0.015903005474712278,0.002243949507196992,0.056682184094515815,0.02265256906600479,,,none
0.18078200000002198,-0.01299709112009051,53.53375743243557,-113.41175042480677,-0.09504362866113635,-0.21963585223268528,0.04900839383368835,0.0,0.0,0.0,,,none
0.19026000000008025,-0.21047316050903372,53.49362990717224,-113.61590970828345,-0.09131960320802035,-0.21103419133493925,0.08710124844618125,0.0,0.0,0.0,,,none
0.19976500000007036,-0.2422552670744422,53.49668129658139,-113.73896294390086,-0.08770525399312235,-0.20198466711083113,0.11140628223593314,0.0,0.0,0.0,,,none
0.20927100000005794,-0.11778682646083276,53.55374093875579,-113.78886272174859,-0.1274645512850329,-0.19244491605271627,0.11606856619581735,0.0,0.0,0.0,,,none
0.2187620000000834,0.12146748753287363,53.665991296828146,-113.78349573931936,-0.16485404692358183,-0.19535884287746239,0.09737756160749532,0.0,0.0,0.0,,,none
0.22829999999999018,0.4239985767611304,53.82123224091637,-113.76506096055162,-0.20991461270186568,-0.20803461175294105,0.06277631693808298,0.003552910543816929,-0.040142479872807564,-0.042843444166892605,,,none
0.23785400000008394,0.48216833563630035,53.67850495757621,-113.94664206747055,-0.24999373864844027,-0.22065380417669841,0.02219545210188637,0.00691739200355484,-0.0421441723706393,-0.044191767524317284,,,none
0.24736400000006142,0.45086679798673956,53.49237987625941,-114.17340721708958,-0.28084057500764575,-0.23105812205985887,-0.01951242791345992,0.007096778674645974,-0.03721994849597753,-0.041662772253341286,,,none
0.25688400000001366,0.3208252143034604,53.255651328859045,-114.4661825305318,-0.30007281786040424,-0.23453670006138497,-0.048548473135139,0.0,0.0,0.0,,,none
0.2663800000000265,0.11502398171582208,52.983100318617645,-114.78542490846317,-0.29514655052622396,-0.22257845959945963,-0.06446138653935655,0.0,0.0,0.0,,,none
0.27589399999999387,-0.12944179525843366,52.68831302009698,-115.04820727271111,-0.27672235433153675,-0.20515130274878954,-0.056552636281342765,0.0,0.0,0.0,,,none
0.2853939999999966,-0.36152158855242783,52.39245709063311,-115.23710247791323,-0.2414536205340068,-0.18706363211704405,-0.03682296379111483,0.0,0.0,0.0,,,none
0.29493600000000697,-0.5497664510425629,52.12445867515562,-115.32577214405443,-0.1932692856569287,-0.16418455640147206,-0.017325533861817538,0.0,0.0,0.0,,,none
0.3139340000000175,-0.7855570309345056,51.71907223104684,-115.42983163443749,-0.11935781059264444,-0.1319444302828382,0.0034467931067988494,0.0,0.0,0.0,,,none
0.3234610000000657,-0.828496196245743,51.567804506569075,-115.47644712992847,-0.10514485674746633,-0.1364912944677818,-0.0011710272399509183,0.0,0.0,0.0,,,none
0.3329519999999775,-0.8371136461179856,51.442691834155504,-115.54649587157147,-0.10452731935317755,-0.13992708475094115,-0.014245645195671276,0.0,0.0,0.0,,,none
0.34247800000002826,-0.8157072928329123,51.32298498276651,-115.61105384951102,-0.11595890504919308,-0.14749033914556867,-0.02873596850163962,0.0,0.0,0.0,,,none
0.35198300000001836,-0.7825880535864406,51.19305070504836,-115.68531049445899,-0.1325709834421858,-0.1494460390255428,-0.04591533571447996,0.0,0.0,0.0,,,none
0.3614949999999908,-0.7457880609641644,51.05231224695826,-115.77811495534264,-0.1475495275911426,-0.14438237650715008,-0.05256684806311169,0.0,0.0,0.0,,,none
0.3710009999999784,-0.711676891817307,50.900596342642274,-115.86633084217677,-0.1558899309629768,-0.13530838485084498,-0.04763263962340171,0.0,0.0,0.0,,,none
0.38051100000006954,-0.7065595590481336,50.732570823225494,-115.95612335025658,-0.15967411651909108,-0.12220953968478399,-0.03657721724678614,0.0,0.0,0.0,,,none
0.39002400000003945,-0.7459008575758468,50.54551498952075,-116.07379081806152,-0.1615298419226907,-0.11716251099547678,-0.02114394038877037,0.0,0.0,0.0,,,none
0.39953400000001693,-0.8434753494558523,50.35114412305429,-116.22796841803661,-0.16059854954417765,-0.11406791300625288,-0.008505981021996884,0.0,0.0,0.0,,,none
0.4090570000000753,-0.9922434002515272,50.151027562546325,-116.42890803693554,-0.16057975554753626,-0.11743704417616596,-0.0035014961956779454,0.0,0.0,0.0,,,none
0.4280620000000681,-1.3706843638223172,49.7176313634421,-116.93589228650612,-0.16404665448281905,-0.14027998742093167,-0.0024346127074976434,0.0,0.0,0.0,,,none
0.4375790000000279,-1.5493577738140993,49.496904427615796,-117.15823614109154,-0.15830570139117817,-0.14575108379224144,-0.006785844218924248,0.0,0.0,0.0,,,none
0.44707900000003065,-1.6921053026672095,49.28347153449921,-117.34899210701845,-0.1475291147734437,-0.14466164621823205,-0.006447525425484032,0.0,0.0,0.0,,,none
0.45661200000006374,-1.792983258904082,49.077384888916455,-117.50464289134447,-0.13613586745419418,-0.1384429401036865,0.003338121073653297,0.0,0.0,0.0,,,none
0.46612100000004375,-1.8534959724322946,48.87872952482873,-117.62673885635182,-0.12318960901635917,-0.13457164270957375,0.019938870985289594,0.0,0.0,0.0,,,none
0.4756240000000389,-1.896108848093248,48.691667909460435,-117.75097843442973,-0.11340906814366838,-0.1295346779355373,0.03769515523768234,0.0,0.0,0.0,,,none
0.48514399999999114,-1.948786493735374,48.50835666798102,-117.89542306759907,-0.11521193455463359,-0.12935897806949276,0.05326262965383321,0.0,0.0,0.0,,,none
0.4946459999999888,-2.022642579038046,48.323718217384915,-118.08099232117179,-0.12478770259359093,-0.1337973872872119,0.059539781615508734,0.0,0.0,0.0,,,none
0.5041680000000497,-2.1182378139662927,48.13221688668495,-118.28288913993353,-0.14034205551114137,-0.14235924393783514,0.06272210793703524,0.0,0.0,0.0,,,none
0.51366500000006,-2.2310669996520316,47.94532366023707,-118.50950089301212,-0.1552374560829525,-0.14137725750427205,0.05916158256143784,0.0,0.0,0.0,,,none
0.5231860000000097,-2.339041470774513,47.772340115013705,-118.75121672286954,-0.16224337825412152,-0.13252024663582965,0.05399048168094751,0.0,0.0,0.0,,,none
0.5326949999999897,-2.4222418533789023,47.62374091812541,-118.95229829413918,-0.15850740299540833,-0.11678489404434324,0.050621124178284065,0.0,0.0,0.0,,,none
0.5422050000000809,-2.4696915753783544,47.5068850481444,-119.02498024888948,-0.14698645269468882,-0.10431219641880539,0.05447664924710445,0.0,0.0,0.0,,,none
0.5517170000000533,-2.484703371447762,47.43052450890056,-119.0416730870227,-0.12766075746149708,-0.08728499411288829,0.0516042259629735,0.0,0.0,0.0,,,none
0.5612280000000283,-2.476043260321097,47.38050779737606,-119.08655911315368,-0.10828248316380716,-0.08193665572714,0.04628207355597444,0.0,0.0,0.0,,,none
0.5707210000000487,-2.4685050291843273,47.351192366658616,-119.11723475967867,-0.09201742133080475,-0.08022897251976978,0.03488390340855963,0.0,0.0,0.0,,,none
0.5802449999999908,-2.4693637435106326,47.34334984838476,-119.1552557875256,-0.0699346069005328,-0.0730307660137364,0.018687694585267187,0.0,0.0,0.0,,,none
0.5897590000000719,-2.4780125198036003,47.354025484090634,-119.19044994814514,-0.03162321981336068,-0.06191715223351653,0.012930168566116673,0.0,0.0,0.0,,,none
0.5992680000000519,-2.4999205806659943,47.39483671065437,-119.2255656254745,0.0,0.0,0.0,0.0,0.0,0.0,,,none
0.6087770000000319,-2.422832200987187,47.41367704298069,-119.2024536538716,-0.016153430770968685,-0.03324692598883416,0.03391732704903719,0.0,0.0,0.0,,,none
0.6182860000000119,-2.26760683159183,47.43985955369202,-119.09377657192469,0.013211343083276154,-0.037080572658365646,0.09405611860751692,0.0,0.0,0.0,,,none
0.627742000000012,-2.129158378284581,47.43241131985298,-118.93912209796233,0.056700833572816405,-0.011945334128548294,-0.1476970372615488,0.0,0.0,0.0,,,none
0.6372150000000829,-1.990478807093996,47.48500589354419,-118.63157808054102,0.05636262938990754,-0.028433561186518564,-0.7855085270097159,-0.010601363428713338,-0.01646570644174743,0.04899642573949479,,,none
0.6466300000000729,-1.6830554210997335,47.78316259590474,-118.06878008287303,-0.07135579761482976,-0.21303939662744995,-1.2231208355090535,0.02209227197295686,-0.059864889421345296,0.07195510334416705,,,none
0.6561400000000503,-1.0004667841120527,47.98595512141863,-117.19837970634927,-0.036685216161246696,-0.20805237893570358,-1.4544411966997288,-0.01728438554428068,-0.09508692031430574,0.07738684452618712,,,none
0.665644000000043,-0.057596828560416695,47.58334988760361,-116.14552489011247,-0.06232832709901554,-0.2491099577188974,-1.4280926870625401,-0.13978938593591564,-0.07225101239930787,0.07782067722457295,,,none
0.6751679999999851,1.0224167746243027,46.785879091113244,-115.13127328678777,0.008230247950213425,-0.18426032043597176,-1.1379440099991007,-0.2183935703498694,-0.05862017818258275,0.051631198425656874,,,none
0.684765000000084,1.965081527557824,45.96017109530204,-114.38247153654306,0.1527860514257094,0.09407288736565474,-0.732917031943458,-0.21548583441384264,-0.044411664065538314,0.021168056240667095,,,none
0.6942730000000665,2.6388471341182322,45.19858939873954,-114.00743662997625,0.16430492859791318,0.2973227127173959,-0.5559598370338686,-0.1885596581158198,-0.019166389250061935,-0.01270262920820529,,,none
0.7037890000000289,3.1494024234788545,44.77719490215318,-113.8788838861574,0.08269443094332607,0.18820636635411422,-0.5563624109711398,-0.11712969523498655,-0.027527660708146263,-0.044122981578464116,,,none
0.7132960000000139,3.5694560795994876,44.85423729818568,-113.8026514160512,-0.02769887632230335,0.10133733916552759,-0.7976898486092933,-0.020552985255679126,-0.056543790803455916,-0.04185876898217674,,,none
0.7227120000000014,4.057917161125597,45.031809705012385,-113.56608749514959,-0.14901586563528665,-0.06509343249975723,-1.1244796272620716,-0.005721753223371734,-0.07339653244175752,-0.017514939331640354,,,none
0.7322280000000774,4.728835623262736,44.9545566482503,-113.01100439595346,-0.2371931689814351,-0.27832037985171626,-1.3555003760692688,-0.06221848164527675,-0.07685715760288928,0.020730247395686453,,,none
0.741730000000075,5.574631540690344,44.594564583535586,-112.11024956830981,-0.19657364148660747,-0.2668739289137845,-1.3446853428760532,-0.12311642201041882,-0.07917349735989945,0.0620005453538154,,,none
0.7512490000000298,6.480965828236111,43.888205206148605,-111.08410841279446,-0.0474794094114171,-0.09246397651515735,-1.1027770039190832,-0.18980154084280196,-0.06478540247218807,0.08077995211835635,,,none
0.7608500000000049,7.227872811274873,42.950239561013824,-110.24800363270599,0.061877722367917776,0.05179225419352867,-0.7923935761155014,-0.22452851274302243,-0.03143460989357175,0.07604870995701242,,,none
0.7703690000000734,7.751524511582104,42.2039334428315,-109.69973969255412,0.16548818139885416,0.2078717236220406,-0.6221581523110965,-0.17724271540358938,-0.01783628682942109,0.04969198809647726,,,none
0.7798860000000332,8.090731377198411,41.840463649768914,-109.45128938696718,0.18721355983660903,0.25282933927996976,-0.60257133406971,-0.09583361417374034,-0.019661247937895667,0.01180790882593007,,,none
0.7893890000000283,8.30593269971084,41.73261087386663,-109.43681952499088,0.08523787908317296,0.10667755849836538,-0.8173287487158027,0.0,0.0,0.0,,,none
0.7987910000000511,8.575469699649796,41.7581383053579,-109.40504876770416,-0.04604622238541322,-0.13425609133247468,-1.0847517514983254,0.0,0.0,0.0,,,none
0.8083129999999983,9.03401107641964,41.707635550019816,-109.15923575941706,-0.10632524866018749,-0.23175534087000338,-1.2895945881593849,-0.042383537169854726,-0.05790920594883784,-0.006716438941997346,,,none
0.8178209999999808,9.721099377281515,41.29520369126296,-108.63939817019521,-0.12298383756708386,-0.2440690808728353,-1.3020978548947837,-0.12171547413377846,-0.06733566559972638,0.019013019942457163,,,none
0.8273209999999835,10.578393494691472,40.53667128151105,-107.88002098499057,-0.09037673177651,-0.16694177808511282,-1.1125944459357586,-0.19506657264829516,-0.0723521835824208,0.0425186044011821,,,none
0.8369350000000395,11.459079806699457,39.68453757261786,-107.043008105745,0.004672266953523372,0.05200041499045541,-0.8552975133825651,-0.21337436616166763,-0.07441897196448108,0.05658695026600767,,,none
0.8464519999999993,12.215590408326362,38.92169279782929,-106.34504718892883,0.08017319759705441,0.22850260120317265,-0.6754145421934125,-0.1900638733438729,-0.065556853739675,0.04892159909234041,,,none
0.8559609999999793,12.774065582053144,38.410298350306896,-105.88286776900907,0.0760240364868086,0.22982451819567887,-0.6590480777333659,-0.13261041172181603,-0.05280779495959498,0.026198512195333798,,,none
0.8654770000000553,13.162117059338286,38.234004491294314,-105.63511621137783,0.03080979482731503,0.12022454792151649,-0.800338464171982,-0.06044203103149654,-0.04653307493590494,0.0030639149103478874,,,none
0.874810000000025,13.443015849457906,38.204126878658755,-105.54165216960031,-0.03452778155210312,-0.046155627495774315,-1.0154412596389581,0.0,0.0,0.0,,,none
0.8843910000000506,13.699114291766609,38.0408404471718,-105.46068089175432,-0.10214855682270635,-0.21368559784936408,-1.1981708270768459,-0.05212674065960585,-0.027614024915365677,-0.010492342044644212,,,none
0.8939060000000154,14.049746385318038,37.63125319888078,-105.2111488886221,-0.11629296475080461,-0.25745347348718167,-1.227283922110128,-0.10358825877707555,-0.029329550461254118,0.006282718638319474,,,none
0.9034090000000106,14.531220093220263,36.960048821452965,-104.75765016654069,-0.06399996960171436,-0.14244403522383942,-1.1008999420332648,-0.15948511079511396,-0.03702327422308072,0.03021917482053184,,,none
0.9130250000000615,15.098746940052775,36.11278071478538,-104.18211152317538,0.0019435861224510558,0.013760702615223426,-0.9022302183612992,-0.19690373466964686,-0.04386901274761166,0.04869607386938425,,,none
0.9320490000000063,16.27567731497553,34.7916205088694,-102.9347731747009,0.09348031756126696,0.20936032036758495,-0.7221501254943076,-0.13592635618368026,-0.06584844884926021,0.04789771863473094,,,none
0.9415539999999964,16.78752593189953,34.48399658472436,-102.49054022039763,0.06666545759141258,0.11884943479107317,-0.8128563618889347,-0.0882396147726382,-0.06712255777575815,0.026243064257653898,,,none
0.9508950000000596,17.22700288172413,34.30020930592034,-102.10924130912889,-0.00106591108535218,-0.053463900175072895,-0.9711221130645955,-0.06090238507672681,-0.06165713440088472,0.003076603636664808,,,none
0.960474999999974,17.620302303161164,34.087946583034615,-101.88785130614035,-0.05563305681056454,-0.17493485138538473,-1.1084531070676373,-0.06458464800057538,-0.053450138093511936,-0.010738644755220643,,,none
0.9699970000000349,18.001346814476722,33.67239843538165,-101.64382048545323,-0.08810619832085595,-0.207207508371271,-1.1413488987088711,-0.10380809599424248,-0.043741243009821996,-0.013102094438363944,,,none
0.9794190000000071,18.399181640500576,33.01324554626983,-101.33806287492315,-0.09722508779026516,-0.14834524879843636,-1.0534982418959133,-0.1520188222319218,-0.037781382998153104,-0.0023830913983119845,,,none
0.989114000000086,18.834358479104598,32.23943479575671,-100.90531791462821,-0.0661969051802889,-0.005531257110782235,-0.9070337878845803,-0.17557840484862977,-0.04118471670198762,0.018636927818473432,,,none
0.9986180000000786,19.287012179240133,31.498857854888108,-100.36664526505555,-0.020983637219683694,0.12438989480064344,-0.777405489738194,-0.1692836087465036,-0.04754326564750633,0.038823237079450415,,,none
1.0176400000000285,15.449252898411165,25.48365487937386,-98.28047842324116,-2.9559732410467814,-1.8569828373911563,3.677903831882521,-0.6437853601716982,0.6715576210641105,0.7061751802462009,,,none
1.0270480000000362,15.29331713585043,28.660183635291254,-94.65061828035653,3.509212562869867,3.0529251444890524,-7.236662799493438,0.6256456536702251,-0.04503806257581187,0.739349562277988,,,none
1.0366670000000795,9.247539914888005,25.741978637790325,-96.10369173741468,0.5613189082807291,0.7701340939241064,5.615140644927327,-0.4907357788079745,1.1258179855749513,0.2685415430676568,,,none
1.0460870000000568,2.525791992429025,22.174671903277073,-100.65946145628173,-1.6976315077677124,-1.880104467502817,-4.345271518252366,-0.5363594724166552,1.3206574425499138,-0.3301872158002882,,,none
1.0554930000000695,1.5733887336136376,23.894699974511905,-105.10420831142244,2.0745689201153175,-1.988493670351757,-0.6811541504395006,0.36285047937915105,0.09402863163857335,-0.8442768462714191,,,none
1.0651840000000448,-5.989976375018149,21.606645663525896,-109.56499264212137,0.6670535581569068,1.5590851092688442,1.266471689270029,-0.034743014102503904,1.4696913017925983,-0.3298524396477245,,,none
1.074606000000017,-8.173219888553751,13.485059657730375,-111.69268978021759,-2.2460604380743976,-1.3212828123422933,-6.3142689408348165,-1.3887086999102982,0.9633684930443068,-0.29421382860930045,,,none
1.0842000000000098,-6.75193408279689,11.858717376746903,-112.43070885720998,1.8437360452648868,-2.426516848904011,5.435549228673959,-0.4195903851364115,-0.13586389186061107,-0.23306029912430418,,,none
1.0936280000000806,-10.161074799157522,13.203609791535404,-112.22626558033056,-0.18375271587283792,4.315393224671821,-6.197227479250402,0.48850096872197285,0.5140836807775339,0.17456552671005568,,,none
1.1032350000000406,-9.511288039174746,8.491049063473996,-109.81599345515924,0.12104632540274264,-0.9815009576077908,2.037742599154208,-0.9408071133529214,0.21793836866960342,0.45344874293666226,,,none
1.1125680000000102,-8.963513596720876,6.728279502993803,-107.8156082819285,0.4389192718596687,-1.5213810704929132,-0.9677364276972634,-0.383002316815367,0.008995576046034603,0.3816757552665705,,,none
1.1220980000000509,-10.18858881475757,8.732827922266079,-107.40438721328631,-0.15956239727419116,0.7465513293872451,-1.4285425589334277,0.4425823318717089,0.10837451463631217,0.11117911698176486,,,none
1.1316719999999805,-10.093831798255321,5.865551862150401,-107.62293853703221,0.13917255011639623,0.6203503157076108,-2.5456983736037713,-0.5671230946736252,0.15280254122516487,-0.05003636755666979,,,none
1.1412840000000415,-10.621875181977133,0.21537661896551735,-108.75598628591639,0.2022038499775311,-2.003164284900169,0.9607507327963818,-1.0561455533908164,0.451546749453326,-0.22422089087316255,,,none
1.1506110000000263,-12.28198830925571,-1.5978465918454219,-111.26674168721718,-0.6183926600934175,0.310301270590628,-1.2299835276359508,-0.24154133090224392,0.4351835274517089,-0.5091456220832629,,,none
1.1602080000000115,-12.239051756023184,-4.237405912203626,-113.38800863246603,0.2207301971173723,1.5413749695935783,-2.0031743422082418,-0.5065343373802756,0.19177830227069623,-0.4264520930301698,,,none
1.169819000000075,-13.153325389603582,-9.337939262203125,-114.17602151350256,0.02856358127695108,-0.018966345486421673,0.8271484884841608,-0.8758536097488705,0.5773987892673825,-0.1809036584697782,,,none
1.1791709999999966,-15.007226656493762,-11.228419674199568,-114.2532725757129,-1.056673569990051,-0.24403632379333884,-1.0784757824053195,-0.20983246618020346,0.48757589454105504,-0.08265973349713182,,,none
1.1886749999999893,-16.589136683022943,-10.91294137259806,-113.4653043665538,0.4557526133072096,0.709046029164476,-0.5149234751745039,0.1691733175565906,0.2577411688847264,0.0963687050758301,,,none
1.198270999999977,-19.263239736704797,-12.935049646020811,-111.44869550867028,-0.5082143229433747,-0.3426544019346578,-1.820376262798813,-0.1879328696266633,0.6377515212722913,0.313382130913451,,,none
1.207853,-21.87283358768124,-15.270672712952711,-109.50854982277215,0.29333412000239506,-1.0204805463754303,0.39963304742400735,-0.27421640216481735,0.6372294936640097,0.2974750208383434,,,none
1.2172550000000228,-23.9727141089183,-16.211170734907338,-108.99828843367831,0.1676870959907396,0.06795525979000212,-1.829265324123283,-0.05811570540662982,0.4426062235012899,0.014260392256362275,,,none
1.2267050000000381,-26.035713851008886,-19.303905997267798,-108.89758590641043,0.6043312352607662,0.5991990751045563,-1.4331152676588828,-0.47196048327746315,0.5720789656421618,-0.0926014410722268,,,none
1.236218000000008,-27.836845051131384,-24.024396628726755,-109.23623651434637,0.315267042508745,0.009811637931730203,-1.0307215852215883,-0.7977991540346965,0.6251490259618893,-0.18702155345776933,,,none
1.2457370000000765,-28.637224259558266,-27.18689263492678,-110.89363620510568,0.289760074115125,0.3127935366225123,-0.8380722973728753,-0.5593173798984578,0.3527949062796596,-0.3975171332891523,,,none
1.2553250000000844,-29.07416359860909,-29.609742363105003,-112.4602880445268,-0.10884786238909996,0.5603266919446065,-1.6227298839409636,-0.43636837070167006,0.25103066340737934,-0.35136161365517504,,,none
1.2649490000000014,-30.374579608862764,-32.60955855243142,-112.24107410072799,-0.21861473761792333,-0.21427088219583143,-0.4393442657370562,-0.48467735922389366,0.43523138186809857,-0.08649012731303832,,,none
1.274466000000075,-32.20271159525773,-34.226633455565256,-111.10398661411823,-0.28690398427907476,-0.6369555111307302,-0.06937097563247781,-0.20174260832805208,0.4041126603504239,0.030764257393757304,,,none
1.2837640000000192,-34.35858579254634,-34.71340797311408,-109.42263747636605,-0.24344634640265492,-0.17215304407282367,-1.066301577330156,0.01855316477698532,0.36802031264518914,0.10913124975476934,,,none
1.2932680000000119,-37.413587523563045,-36.41588947453496,-106.37609752675294,-0.03868132545443134,-0.2020974481064411,-0.9989968084621109,-0.18423267765838985,0.578674278409472,0.2818196090639918,,,none
1.3027910000000702,-40.56597735950627,-38.67965201619066,-103.43399833371282,0.5608213342300795,-0.012049695391477412,-0.6961723243613331,-0.32181166875963485,0.6006407564424435,0.2310910465681125,,,none
1.312381000000073,-42.743131520404205,-40.74811126271332,-102.2256692963149,0.2237039022880507,0.496671526058504,-1.6743568827247637,-0.3419310605129303,0.41950960747898214,-0.020287327244678847,,,none
1.3219050000000152,-44.44566965324386,-43.823330811831845,-101.61008701635942,0.22543124772072415,0.5885247870567317,-1.732786291715891,-0.5630354156180671,0.37487717860413483,-0.09930113903561859,,,none
1.331327999999985,-46.06965430499711,-47.515615064858856,-101.26127728938444,0.19111377799614557,0.204619876109858,-0.9757077278622552,-0.692094808494301,0.3709270885430548,-0.1559114275547474,,,none
1.341003999999998,-47.039892129190235,-50.337976471358566,-101.83960364903237,-0.033514392826915644,0.05101540275651037,-0.6452641613427228,-0.5403232641814141,0.24050866549684316,-0.25500004122457376,,,none
1.3505230000000665,-48.645505965664555,-52.50687523404465,-101.56951952580124,-0.34432848803897675,-0.08002773419392807,-0.7460782642776733,-0.39650520344455814,0.2871139784104948,-0.1897930971934969,,,none
1.3600220000000718,-52.406640048167986,-54.4829639206575,-98.65250948405648,-0.14476667813751448,-0.2964311946996296,-0.22471188921837645,-0.32251583308990583,0.5132068687535168,-0.013788056184349176,,,none
1.3695380000000341,-57.11280792069542,-55.550552545764994,-94.58945499771318,0.19105901379299672,-0.24385138312610355,-0.32880085948436233,-0.16119122177865508,0.5638404445953553,0.04968789504715315,,,none
1.3789420000000518,-62.00426869965656,-56.04887910478367,-90.33882917559671,0.033852075296869434,0.017877154102746533,-1.28801806362948,-0.08665089597875548,0.5567452808392797,0.05004785607632757,,,none
1.388449000000037,-67.6825445812188,-56.98211971271095,-85.17974069794892,0.2097315056335243,0.16500451015307635,-1.5577588936240694,-0.22140895658492837,0.621794479039628,0.09393192036427525,,,none
1.3979640000000018,-72.8588093923808,-58.4167521099884,-80.62513025325508,0.2776858238623245,0.1654876402347154,-1.5525719158847036,-0.3632164240438083,0.5166899974582615,0.045289446581410396,,,none
1.4074699999999893,-76.52979257892208,-60.33940020198566,-77.77044141010758,0.009493666216286046,0.19033308636372331,-1.6411678012928963,-0.4579039952553247,0.2988554908383793,-0.05164953367431416,,,none
1.4169950000000426,-80.47575833717164,-62.75944331773516,-74.49577795167015,-0.10470036823941198,0.046135490595595435,-1.2364951347506885,-0.570298265433119,0.2525729377698335,-0.04212285139002888,,,none
1.42660699999999,-85.67284807037333,-65.08479284995144,-69.92032374262445,0.1065325291052319,-0.0348975666084578,-0.4808677785352685,-0.5924183642867015,0.29664718888066255,-0.022900823485299787,,,none
1.436123000000066,-91.20533962868454,-66.62399473385565,-65.06739328027294,0.01262370056073876,-0.034652049771021404,-0.29357472711236,-0.4668666007927099,0.3043777522595436,-0.04106724124619187,,,none
1.4456050000000005,-97.90387380279904,-67.06468820751991,-58.980242195146786,-0.03925624745417295,0.020443598672959206,-0.516320253301515,-0.3330624775909673,0.42818087875171534,-0.013696974084458058,,,none
1.455137000000036,-105.78633907226478,-66.35620422298518,-51.641947634775114,0.20218579060582295,0.09499797512151277,-0.7111301747381683,-0.2452037579273695,0.5975295674287615,0.018830386359549815,,,none
1.464535000000069,-112.51242284202361,-65.06311458288096,-45.59421353314258,0.21318736861669854,0.1299754165876106,-1.180018080793647,-0.17796241164949667,0.5913612783243513,-0.018805684436160177,,,none
1.4740490000000364,-118.16271276449567,-63.8823731887453,-40.76049646423127,-0.12076739072023217,0.09518877219751695,-1.662385239490437,-0.19917922506470903,0.5112255687622473,-0.0530703379253643,,,none
1.483555000000024,-124.09630079027595,-63.03405475685596,-35.55316971192847,-0.0892385007399904,0.017877365972181293,-1.6106062782658441,-0.3174222284900117,0.4668796658044283,-0.024525945474008652,,,none
1.4930800000000772,-130.15600000423728,-62.70591925657862,-30.120531963785634,0.033392278805044535,-0.051845647094123,-1.26079192945323,-0.4337538093523116,0.3607168386973959,-0.004596754177019653,,,none
1.5025080000000344,-136.245547297896,-62.71035850483688,-24.558942521715345,-0.038177458878133515,-0.08184690088281901,-0.9671407976274222,-0.5010965767473088,0.26185033534376234,0.013634788597048298,,,none
1.5217069999999921,-143.04704955990533,-62.83952644335382,-16.775690011779414,-4.588590821431619,-1.7782502874093808,7.612320741164755,-0.06707519662228001,-0.10149536485232283,0.27128480367001195,,,none
1.5312020000000075,-104.08271696471563,-69.27149056626541,-52.516758043663295,1.0588955171642005,0.8585195611514588,2.7142029580135003,1.8643365379800978,-2.757228368025272,-0.030395984192279842,,,none
1.5407250000000658,-116.81385048352946,-63.20101959992253,-35.539053139044526,-3.706079754467237,-4.478447233560167,3.933804896035961,0.10104152764236615,1.5865124612027952,1.0886417552696008,,,none
1.550053000000048,-138.77358439358605,-50.609607958480524,-8.686238122117414,3.765593667736897,1.9816172160770975,-2.5136799500820235,-1.2730990749864104,3.2126863095845013,1.7451997636548136,,,none
1.559639000000061,-143.48650474065843,-51.5398615413455,-1.5938223712918402,-5.469406469554942,-1.3033733021206837,-5.634329519943788,-0.6107770291797675,-0.1261301672673531,0.7157766998035351,,,none
1.569078999999988,-155.8083218512925,-54.26564936771151,14.859962561665498,3.6961729767387537,0.838424362133264,-3.183580289477204,-1.4186148965949061,-0.7029076623306121,1.3689937362793854,,,none
1.5787690000000794,-165.54692440832258,-62.941457578360726,22.08749211602064,-2.4654402427201334,3.839965606975447,4.435559967898686,-0.4167001737295786,-1.9594555557961417,-0.24953618450793424,,,none
1.5880869999999732,-154.43147309345215,-76.78769958554474,13.343583101221126,3.153856666251128,-0.9252564629689892,-0.23087919013617342,1.5679549636494503,-2.3969112085897564,0.29379249869924695,,,none
1.5977930000000242,-161.50292130421275,-73.44929777833963,16.12025980447932,-1.269975587054223,-1.5828459975771536,6.67194525225962,-0.530974405526475,0.5638238634150163,-0.8534077534314801,,,none
1.6072980000000143,-162.55764180773852,-67.80028389558751,14.882421771957155,3.0398533273929975,2.336444044308627,2.694161998035428,-0.3798239734683435,1.083346783421274,-0.45386234966077416,,,none
1.6167090000000144,-160.42748449812913,-63.5319196564604,13.395506849606925,-1.659223395128394,-1.047061295767652,-3.7295761958311653,-0.04647728588303693,0.8814588816085991,0.10047740237129316,,,none
1.6262330000000702,-165.98132895404046,-55.262420154656866,18.683703818746146,-0.16526729046174068,-0.6538383626908497,-7.463283360803793,-1.0067284834688937,1.444769872053088,0.11046278607524487,,,none
1.635725999999977,-174.41806346669182,-53.95154374671209,25.905805658833174,-1.0034509352416243,-1.6241432019294348,-5.694968842361532,-1.008697983129307,-0.11833108710852111,0.07909065759560717,,,none
1.6452530000000252,173.39365036256726,-58.9414016032625,35.91542497739197,-0.7195733460881892,-0.39256800249977236,-2.8039871350356766,-0.6474536618829106,-1.5360949997083373,-0.06132605112625769,,,none
1.6548530000000028,162.5946979390896,-62.65215025232847,46.107900344548504,-0.06981069254245795,0.902321984788393,-0.058811400286951365,-0.31306107963742935,-1.2396584328865279,0.12010908802421352,,,none
1.6643609999999853,155.82616744871765,-64.05795154648347,52.341458158024025,2.330223249053532,1.3057574414519204,4.213969695944434,-0.19005428223755183,-0.6327952271689994,0.007727777435739662,,,none
1.6738730000000714,152.45536710041458,-64.38118723567146,52.69408267187036,0.5384083212969393,1.3438937227308543,3.534991371551335,-0.13465866225007725,-0.2618575676126792,-0.5708129538871204,,,none
1.6833760000000666,156.78277597957208,-61.1761993781451,46.815611435667456,-1.245902235710791,-0.33163625769221783,1.038067004133339,-0.24347526827456129,0.727175502805812,-0.4256112579788333,,,none
1.6927860000000692,161.12467453965803,-56.037973699484255,41.85280824487671,1.9566400542344702,-0.815602775006151,-3.981106880894597,-0.40354163084693945,1.0633310686669823,-0.2551673993815796,,,none
1.7023100000000113,160.79476437026602,-52.580755930316656,42.25918735951955,-2.420638616584819,-2.493572831534256,-3.567128217519727,-0.49947660997012483,0.5001539321513045,0.023480929464395003,,,none
1.7118209999999863,156.21527691928526,-51.290975737162846,48.250815325578735,1.012584128921807,-2.0461024506297765,-5.122808230028078,-0.5877354819438673,-0.2074216059586081,0.4728267319428485,,,none
1.7212430000000722,148.20002948971288,-51.27622941390571,57.178839371273114,-1.9248292495337913,-0.5041856704923979,-1.1921456162838842,-0.6167886436661248,-0.7839539383128982,0.5227389641071625,,,none
1.7307510000000548,142.3312136415563,-51.577366919732945,65.49229883273908,2.146366992099104,1.9995224636987696,0.21556600598208392,-0.3066500703168877,-0.6595215190950832,0.7352467236243742,,,none
1.7404569999999921,138.08649483220643,-51.9062270469844,70.36064615357989,-0.5509758299405287,2.1994354470363797,2.5893167948674694,-0.14552553773268265,-0.5008136226960985,0.29552627328704933,,,none
1.7499470000000201,138.69580839239143,-51.06380797690197,68.53676133055933,1.2010721161774573,1.601758475752902,1.426109128256176,-0.1404804527828855,0.14101029232743376,-0.28819191303280406,,,none
1.7690610000000788,145.3615981361606,-46.76050446359275,59.77832970994468,-5.364905259060869,-2.7478653933653066,2.7085978550172984,-0.1529700795151505,0.7465301003512536,-0.18707270698590864,,,none
1.778483000000051,137.7297049845577,-47.090326550646026,61.65657911299382,7.046015296422515,-0.10600857828965796,5.27862951693687,-0.458128373179353,-0.9302308214022561,-0.7794026210116685,,,none
1.7878150000000232,112.02967310843407,-51.430638216716076,75.33576384970323,-2.274187142443508,2.199639695110299,-0.8719726499800468,-0.4229334580215424,-3.410061051554174,-1.2930684214539445,,,none
1.7975119999999833,110.06933798137177,-48.83944763143761,74.36655961786941,-4.181968292927536,-1.9672123384921592,2.6413644337661846,-0.5721747238172333,-0.09670528060152722,-0.6031370724378066,,,none
1.8068369999999732,108.37369699156719,-42.24836327369615,69.690961057563,6.273084852010026,-1.4036377796169297,0.4276732292795616,-1.3351374839669274,0.18927767502295265,-1.2669419113592735,,,none
1.816357000000039,103.5509047071194,-36.902720655781955,71.61158730347394,-4.6089511963807315,-0.11567296588255241,-1.02537784601002,-1.2594122341102876,-0.338578194504194,-0.31353464027838773,,,none
1.8258640000000241,104.67686639883622,-33.18949352487914,71.54742183612822,0.7043189449591933,-2.327352674873918,-1.6863104824029813,-0.6526051653145578,0.4217169858742538,0.06370415573956757,,,none
1.83538800000008,105.07973369485265,-32.03818122534351,71.8798648487326,1.2912268234743847,-0.8914638582753946,-1.6065272972931068,-0.20238401307973244,0.1493654244163159,0.06837936705674807,,,none
1.8448870000000852,103.87827653631732,-33.752407789901646,75.78004731868918,-1.5191856529558208,0.4554667089785453,-0.6055770088883434,0.2686740694477806,-0.276357130350561,0.6162550723659709,,,none
1.8543869999999743,103.27263393708796,-36.66396289387005,79.92007296140108,1.79026318269216,0.4380512743845124,-0.8239077311445271,0.5435703445067014,-0.20641247255895498,0.736702520401123,,,none
1.8640679999999747,105.2104455755331,-38.92889068449506,80.58851669162566,-2.5270762811867034,1.4936620524159947,0.9754767234643742,0.49263312189689995,0.238202829705124,0.35208022195194016,,,none
1.8734190000000126,108.53674486842877,-39.49234127087884,79.16196980745927,2.299764876166654,1.0595475497034474,-0.5166442121122932,0.19489530599701066,0.5005353207034474,0.11191393030774321,,,none
1.8829269999999951,111.32133420975747,-37.92343149336485,77.41893000953426,-1.4014447049362262,-0.12411167733818525,-0.6032511220093253,-0.22659701803889482,0.501684678624962,-0.02922274407237076,,,none
1.8925239999999803,113.43102716105702,-34.396196629616874,75.9284176988615,1.177700880784523,-1.1733814013223807,-2.465673458041464,-0.6162628489925338,0.5060810660992917,-0.08002562244318188,,,none
1.9020300000000816,113.90253384292323,-30.116353477686143,76.27896629723875,-0.630023466249954,-1.1459384750491428,-1.9539089956341893,-0.8205479781422593,0.2943403872535191,0.08793298790818936,,,none
1.9114600000000337,112.83385486185887,-26.44768346315747,78.52368190354474,-1.4893685063774615,-1.0052234786313157,-0.6382090105965236,-0.7658424247286317,-0.013010741246258999,0.3139994715569894,,,none
1.9209670000000187,104.84514972542127,-23.724174069917996,81.90540351416537,6.111335532419708,-0.5716800377628497,2.356845041505991,-0.786372689650129,-1.3254665105196002,-0.06722106047668919,,,none
1.9304799999999886,87.00446883472887,-22.09379063318544,86.05768107163662,-1.6951424314212375,2.8755686896611086,-0.11255945471312745,-0.6560165591228835,-3.228630456179512,-0.6799788044372402,,,none
1.940166999999974,79.88791993912395,-22.32202266799898,86.48155913787139,-2.442284250535275,1.3653616369153898,1.003638193797816,-0.03522899220081979,-1.3087164948652819,-0.594334571288945,,,none
1.9496860000000424,74.88487581916914,-22.559790274437518,85.0072064409313,2.373011441702324,-0.49309953320335925,2.8381533618787946,-0.017709815670034122,-0.9162221098490415,-0.7986314268703093,,,none
1.9590150000000222,68.88667706984462,-21.814543737288552,84.83977390830051,-3.5669066283580344,-0.5032221702285647,-1.7459754375047618,-0.241609875593405,-1.085018073915054,-0.603950761300915,,,none
1.968527999999992,67.99091825793505,-20.89937377134245,83.9585170209584,-0.7822588069121789,-3.1076831456288234,-0.4282231092843425,-0.19754422720025228,-0.13851814457115716,-0.33812330922145334,,,none
1.9780309999999872,67.77918730651774,-19.216968315045758,83.16807006799878,-0.11809214416013981,-1.9554945170876505,0.016912971876638264,-0.33855986343718275,0.007588310118972625,-0.2460874981091347,,,none
1.9875430000000733,67.21307636282614,-15.965423849492542,85.02895490748314,-1.040695343405254,-0.6433421682845168,-1.2481791137652765,-0.6585866123461086,-0.03230040125933077,0.27174822627412865,,,none
