timestamp,Roll,Pitch,Yaw,Acc X,Acc Y,Acc Z,Gyro X,Gyro Y,Gyro Z,Acc Magnitude,Gyro Magnitude
0.0,-2.3788232237484217,-2.5649017304794963,169.79980712663757,0.046894449761161514,0.02468845620651145,0.030841163070257586,0.0,0.0,0.0,,
0.009517999999999915,-2.380281886784667,-2.5797517800375345,169.80013488914386,0.05412396418720886,0.02183381089730328,0.03141512716727642,0.0,0.0,0.0,,
0.028544000000000125,-2.3771319108669817,-2.585432456167159,169.79368277841525,0.07387075895877031,0.016886375416127006,0.03532623496695717,0.0,0.0,0.0,,
0.0380439999999993,-2.3765740747283273,-2.5744464102886373,169.7733104105821,0.07708978409934798,0.018045359595761864,0.03478052507410379,0.0,0.0,0.0,,
0.06658000000000186,-2.3994553118863533,-2.522264538962126,169.64788465897604,0.06021540332001853,0.024013290494492044,0.04160863511177952,0.0,0.0,0.0,,
0.07609599999999972,-2.4171928918364,-2.519524000624116,169.6080963884345,0.0497738031332403,0.02618885163609761,0.027448783841073767,0.0,0.0,0.0,,
0.09511200000000031,-2.4407138445473016,-2.538015520199552,169.56960293167342,0.04686892400986295,0.022071365944399218,0.026893170951108023,0.0,0.0,0.0,,
0.10461600000000004,-2.4423074085728294,-2.5520963080067305,169.56828835778998,0.05128190648357918,0.01654037922412654,0.02597095036032031,0.0,0.0,0.0,,
0.11413300000000248,-2.4407451591831117,-2.5578217910218357,169.56848078719366,0.06431160907045272,0.013320079620909898,0.039270507517052765,0.0,0.0,0.0,,
0.1331559999999996,-2.419713350974839,-2.548217263789863,169.54580664291117,0.07576117340980716,0.015059845865369363,-0.001986187602130719,0.0,0.0,0.0,,
0.14266800000000046,-2.4107731671631654,-2.529203077831659,169.51594565865065,0.07834234193155505,0.01904721241207491,0.024114947004426537,0.0,0.0,0.0,,
0.15218100000000234,-2.4045752332947106,-2.5135158604902337,169.4759171200626,0.07014331367478516,0.02469664291512266,0.0398432227466807,0.0,0.0,0.0,,
0.17119200000000134,-2.426569136772415,-2.5038966910703673,169.39120682152986,0.05167917006507783,0.03504361948511784,0.036403567710135455,0.0,0.0,0.0,,
0.18069500000000005,-2.448612486818743,-2.5175322138177414,169.36079917065115,0.044420796638737964,0.033846711480584275,0.02856876066590724,0.0,0.0,0.0,,
0.19021900000000258,-2.476626090432172,-2.533414209924118,169.3431570461907,0.045666354031826506,0.03113634538291089,0.02769902659021707,0.0,0.0,0.0,,
0.1997169999999997,-2.498568595149011,-2.5469047518192345,169.33677459102253,0.05205089299055615,0.022818996889367078,0.038570291519666344,0.0,0.0,0.0,,
0.2187480000000015,-2.5133266106929675,-2.5524388367909334,169.33098845393738,0.06519943861472464,-0.01368372219768774,0.02842086058607371,0.0,0.0,0.0,,
0.2377760000000002,-2.4859322977675733,-2.5216053598633716,169.29096736216061,0.06900203347917633,-0.014185239250879254,0.022631176951873038,0.0,0.0,0.0,,
0.24728299999999948,-2.4630934050853903,-2.501117217919988,169.25644886195184,0.070981785977083,0.013729604779536093,0.03472014873088245,0.0,0.0,0.0,,
0.2567800000000027,-2.43966074289112,-2.4890516385966497,169.2174286358213,0.06286952986046644,0.02036964054308887,0.029689935643035598,0.0,0.0,0.0,,
0.26629700000000156,-2.4220346160708313,-2.4883146277261923,169.18140959520878,0.054405051657694124,0.029222470728594276,0.030403587725423547,0.0,0.0,0.0,,
0.28532900000000083,-2.414422349814022,-2.5098156831288803,169.1365008667268,0.052615695860092286,0.03561128725838608,0.03688612647114639,0.0,0.0,0.0,,
0.29484000000000066,-2.42342465058353,-2.526413126863613,169.1288865609288,0.058265447039663465,0.033287648822875784,0.03829642060831049,0.0,0.0,0.0,,
0.30426900000000145,-2.3932594140387895,-2.599216462354508,169.1239497848756,0.0434578878179238,0.1514377984482144,-0.436451656972499,0.0,0.0,0.0,,
0.3136050000000026,-1.1341865623973781,-2.4818401985770464,169.1523193742498,-0.05187439814353497,1.113106771893081,-0.48919186366893835,-0.25175704174821145,0.024378482271553394,0.01685378750192034,,
0.32327100000000186,3.7562849271988368,-1.84481297788458,169.11297277375382,0.22106864553268,0.8218603737737279,1.9206449253612057,-0.9849489596668709,0.059295153654994215,0.029088610148864692,,
0.33277800000000113,8.711663275031022,-0.8589288376654547,168.3639034627137,-0.3002447202327671,-0.06699822425742849,4.636506838200231,-1.011319958851249,0.00023447426740724417,-0.12647085882528783,,
0.3423000000000016,9.442600537821518,0.3488188949269016,166.52445685726386,0.0025359319566123704,1.1510589253845243,2.9751173196746388,-0.19542319751724335,-0.20421969007443067,-0.3676157031566194,,
0.36131699999999967,9.52367811672575,0.7345899204581892,161.0238030643184,0.16188000923426837,0.39371321898337514,1.8417711882827021,0.07345291355490764,-0.033694889983879976,-0.577227655947927,,
0.37101200000000034,8.272392522941303,2.001491355897743,158.54215273164692,0.8039182329078647,0.5239743397428587,1.1278906627672687,0.14738916775400288,-0.3245973111446394,-0.4908441849081526,,
0.399597,5.931483932069534,10.495241460616578,156.24418940557484,0.38905518359075386,0.03520024114669258,0.14685794917265127,-0.1082282405843221,-0.7537193694009731,0.07112248129069958,,
0.40910900000000083,6.019401833081032,15.127032476645208,157.31539144050114,-0.21265871693278504,-0.32335416556196966,0.7034825860058889,-0.38141214602458107,-0.8454881334199151,0.21045018349568584,,
0.4186060000000005,5.763476152609019,19.896424633414842,158.78922586062325,-0.4050353657799697,-0.15045593523339737,-0.30427320514050865,-0.31158022580435785,-0.9040043852754391,0.3103373342899517,,
0.4303890000000017,6.1828218710131075,24.54437203588562,160.4090439184316,-0.42571565485936763,0.009487786593389657,-1.1004092528322713,-0.39727311408152355,-0.8451479762699899,0.29237425991096244,,
0.4374520000000004,7.595597041490721,29.017013522640795,161.95921249006582,-0.4629496470083773,-0.4504629829232674,-1.0494892162117226,-0.5278998164584822,-0.7661420974651748,0.1827150899085629,,
0.4470780000000012,8.476499851897593,33.05650203821219,163.10534927950607,0.3118283674138052,-0.7407677339145088,-1.8661859815208048,-0.38694849485054794,-0.7260976930898801,0.1384217213340105,,
0.46601599999999976,9.407202974690152,40.132564246732066,164.00520516134176,1.6253514318419993,-1.2026731297580695,-2.120582945258072,-0.23211411210437632,-0.6395478814759841,0.01057130903887879,,
0.47563399999999945,9.543311178225883,43.221352426914926,164.02971099460163,1.271578281052299,-0.725378773357311,-1.8640604164083738,-0.18985206405750707,-0.5889219487855146,-0.013216315186400002,,
0.4851610000000015,10.30488226566687,46.36564492346706,164.24992474151102,1.313920685007032,-0.8432798848168112,-2.5557625408226308,-0.2761470462606283,-0.5759935825660591,-0.06336483864055324,,
0.49468200000000095,11.265734243738418,48.949114705817465,164.64665708076518,1.8112468839824412,-1.0452688286682967,-2.993384787973443,-0.2635231021018132,-0.46356471771980906,-0.06278783148673268,,
0.5066260000000007,12.3117768400629,49.910762921445425,164.82356081450786,0.9273036616419641,-0.5700116693818742,-3.1014414047817254,-0.18209807334646982,-0.14987712122816335,-0.12367514080120587,,
0.513695000000002,13.433358257643864,49.990253428083854,164.7796560777819,0.018035453639781464,-0.18771727869241378,-2.8746656789395932,-0.14361204796887214,0.022522318806936753,-0.18068877049075627,,
0.542148000000001,12.981955744525248,40.96450048685911,160.247968593359,-1.9075433975030625,1.389225664724518,-1.2184904848371667,0.39558577347337576,0.8861529400809779,-0.35641480463710873,,
0.5516480000000001,11.58453680154876,35.58014914761237,158.11802278528793,-2.1970220287227766,1.8739422193352355,0.1584598719377617,0.5884973781219478,0.9295404844163655,-0.2527566249380859,,
0.5613419999999998,9.416248847946212,29.86544845808193,156.3023826060602,-2.553178876134079,2.130680603054168,2.0867569558309875,0.779996800360866,0.9131935741444167,-0.128410851322527,,
0.5707960000000014,6.153256420913988,24.26453302569425,154.98302233437303,-2.701500560321254,1.54978004035286,3.59224621823024,0.9925361184851773,0.7812598572898996,0.03348483883905885,,
0.5803510000000003,1.4434894868625483,19.450541446125143,154.2495140054032,-2.7047732046809863,0.7514474008797412,5.066515419394459,1.203844904769798,0.4950048402153984,0.20447171049767104,,
0.5922250000000027,-3.7791708862888957,15.805632631563501,154.10480123457506,-1.2753596117217207,0.19726174944674435,2.129125007295847,1.2148609858533725,0.22227943488918478,0.2877742909147639,,
0.599297,-7.373716141966106,13.566085513793855,154.51395540886776,-0.21211552784164076,-0.008693833706180867,2.3691849083971084,0.82173125866159,0.10211934735898678,0.26435016775593284,,
0.6088300000000011,-8.50962679078157,12.6583127334749,155.3441767641333,-0.5557145747063598,-1.1634890586791948,6.385255270735111,0.2776500632068365,0.07076491615125922,0.21780910817424773,,
0.6207799999999999,-9.336882316142349,13.965203250237241,156.2310901838782,1.1749142388456946,-1.31343404676387,1.0898526490741018,0.03969485026464334,-0.3047497603387275,0.21570159783921525,,
0.6278400000000026,-9.990671451736116,16.633779070143653,157.14063182214326,1.8924769883248553,-0.7720573194884227,0.31388718085214967,-0.09549613069583807,-0.5406474968450893,0.21661351854305708,,
0.6373560000000005,-8.635444036170034,20.507476907781843,158.15337687463497,1.0330025062565116,-0.7258145519116294,0.5668621392532214,-0.5328801447052621,-0.6194324044323959,0.116251474710296,,
0.6657860000000007,-2.417118201798732,34.982065293449615,161.62203515182938,0.18618812913240146,-0.08208892292775362,-1.7436084749507312,-0.6853392854117727,-0.6430085665253065,-0.010935928754669633,,
0.6777630000000023,0.2802767837779576,38.617228293899835,163.12711805970204,0.20664703961280506,-0.17469074331182893,-1.8423535107188798,-0.6325361224964715,-0.5625476683116918,-0.02235872421894249,,
0.6848360000000007,2.693652947664126,41.36283139369645,164.65007585853294,1.241397876041916,-0.39897495637849484,-2.8329515999741695,-0.5082125624467414,-0.42529511736312947,-0.005724848596164615,,
0.7133029999999998,7.385401036851454,43.4594611928549,167.0382887667569,2.1757658509452242,-0.6594368122620206,-1.8746530602364226,-0.10523432758534171,0.03938576153297319,-0.06414163406273063,,
0.7252919999999996,7.619053590435692,42.78386126966932,166.59546906496277,2.038708963087923,-0.5530358902119247,-1.5621089715860812,-0.0023974846847046815,0.13948975419085397,-0.12063549270461646,,
0.7514380000000003,6.395132210544278,37.50558337878221,163.66835643429928,-0.26307086693608395,0.3474895808131072,-1.2911710990211025,0.22023980654980302,0.4394407799213669,-0.11131545015868897,,
0.7608740000000012,5.359460517718684,34.136730589640486,163.13184646449545,-1.3786631598961725,0.8988496350649827,-0.8577089364647374,0.35384324293280833,0.5983325854878895,0.013991121351436967,,
0.7800730000000016,2.791502904855265,25.618245474738618,163.54438180541612,-4.108800556031132,1.271367604014359,2.953623505453094,0.5091013515087084,0.7587335497420185,0.2259279975240388,,
0.7895220000000016,0.6253041138045651,21.762080765585058,164.12381430132527,-3.65282696621302,1.092643644058641,3.5785476079896545,0.5964759677051676,0.6308684127303688,0.29024934928350066,,
0.8014880000000026,-0.4122271568733869,18.72093594505711,164.59149732846078,-2.2360556342429576,0.42952864564669935,3.9530863144111708,0.35188079608560696,0.5337688229340387,0.16549228946516847,,
0.8085640000000005,-0.22396498920714122,16.792141126753883,164.652351707169,-0.5671805441245086,-0.19243053771053736,4.180820425757056,0.06779551934780768,0.3818721132128123,0.000686287479754841,,
0.8275620000000004,2.9941781012955344,18.704119460909695,164.02889661348527,1.6355946513784403,-0.3824087468746166,2.2309824532701614,-0.4834679286537982,-0.27039901547121314,-0.19047846600018353,,
0.8370670000000011,5.4374731238565515,22.377887293426827,164.05446174833546,1.2690445838821853,0.2936395714636162,1.9400888519253974,-0.6427108756827573,-0.5811316590910717,-0.16655891259949743,,
0.8465860000000021,8.833435421988948,27.832570151042013,164.95037953753547,0.5695901525588472,0.6237749040096457,1.2845621383127876,-0.8852440507095316,-0.8875138916384818,-0.10939357532089314,,
0.856104000000002,12.5953597370679,34.01052865011665,167.0270460925163,-0.5070988015107157,0.9327485320613638,0.6110368044288839,-0.9265571862892525,-1.0431391825474159,0.028035772220886785,,
0.8654600000000023,16.598978774016828,39.26784691571555,170.22206854285298,-0.6253629348643468,0.8880371544552603,-1.4726505767612486,-0.8382660985903403,-0.9045465582701206,0.16053630294297938,,
0.8774840000000026,21.920931386649226,43.40108191241361,174.4259104544504,-0.9222989366763615,0.3008192093680792,-2.2378077004706585,-0.903405420191476,-0.7125473314465758,0.13706762174440615,,
0.8845680000000016,27.144118495720317,46.669707638903645,179.10048246111015,-0.033136493271952304,-0.38406120359760976,-2.410106102490085,-0.7747344495168635,-0.6111138444428399,0.19530898811472375,,
0.9060410000000019,34.5230020790795,50.820225684505345,-174.473410926528,1.8243675118862488,-0.9926874601563105,-1.4397694448634164,-0.39788546530392455,-0.4188057749520801,-0.0006566723585296019,,
0.9131280000000004,36.838373555659714,53.72317877633576,-172.8651824016918,2.4258741183132635,-1.149861250760783,-0.6721383509118755,-0.21787887707974163,-0.6088623206914642,-0.04479225847746396,,
0.9225610000000017,38.28880886802881,57.65491122135153,-172.03563540197234,2.953490846653413,-1.2055521234365563,-0.4222008818928029,-0.058884885143011434,-0.8018450341769797,-0.07390854105289876,,
0.9415879999999994,39.98540204591928,66.64253988755229,-171.2908847750565,1.838256073365727,-1.081150097387266,-1.4458457772336715,0.07662843343603414,-0.9094638431578091,-0.014165273242897878,,
0.9511800000000008,40.6568098363178,70.17449203904538,-170.4073057936363,1.9771909213045418,-1.2201595596919914,-2.5830143419933465,0.06362255289801705,-0.7060430416741359,0.051808897084152726,,
0.9701500000000003,41.14642277627302,70.71792714626132,-170.5290596873075,0.4864588144446293,-0.8194509842000552,-4.436745606477655,-0.04235168840453454,0.15106278019202551,-0.08173513373165549,,
0.9891810000000021,36.08207068399691,61.039467124453324,-177.03412204886962,-1.850239106762832,0.7477167701141061,-3.0639299749113436,0.21901508371990575,1.3110339427506106,-0.24126666423447057,,
0.9984910000000013,31.254222592717404,52.586547085730004,177.91914896985185,-3.804058162923309,2.432916280024351,-0.40193099446097713,0.51639709115808,1.6951509905907376,-0.19871210901554734,,
1.0273509999999995,14.598956299518443,29.76163952634395,167.99411957200394,-2.4617142575480027,1.8382932605601188,6.442056172903586,1.1806626593696352,1.0257376895968826,0.10860293608201604,,
1.036716000000002,8.218864364173477,24.774538564204242,165.67560047455572,-0.44160873746718576,0.4099695259651927,5.872921443128443,1.3330025066042994,0.7124943348847842,0.12190413456913712,,
1.0556839999999994,-1.1791155037593657,20.116340851800192,162.93950123957063,1.6837594489402845,-0.5007984584952259,2.6693009353646526,0.7150667055293837,-0.00859129156928406,0.07449705861700491,,
1.0651900000000012,-3.587978527981495,23.235129744414994,163.0455939892923,1.7226085350003761,-0.8944156259197584,2.389627359733873,0.24602748546851122,-0.728152820951387,0.19939398351015844,,
1.0748490000000004,-5.343732921566388,29.009693509667294,164.26140547924004,0.7027476030319049,-0.36655911457916607,1.982234323113057,-0.022378281409042917,-1.19826835935746,0.39804634688331386,,
1.0933550000000025,-1.8524731042727591,43.016526490023985,170.33439157065047,-1.3318115272250306,-0.06312940715145068,-0.5956976001345781,-0.7334193163042675,-1.2908632725786042,0.34007999505409414,,
1.1125080000000018,7.741569453459315,53.396529971435825,179.322393637657,-0.1968662192233272,-0.3833340323297312,-3.261046163801497,-0.6896045099438164,-0.840700156264363,0.1088043192326142,,
1.131533000000001,12.14301670061601,56.080762290660005,-176.31055254164693,1.4890031616179615,-0.7840198646598425,-2.602185016616951,-0.07681853290524676,-0.08744147194536514,0.08985303313481431,,
1.150455000000001,7.348710059962196,55.56841900595643,-179.1310811234973,2.6171920598889944,-1.1384878482423315,-0.7145662965849647,0.37789912004331544,0.05453488695736651,0.16232331562975075,,
1.159993,2.2293701401415205,55.351751328602276,178.5698643426727,3.233626648924402,-0.7745180545872273,-0.3143462980800033,0.5812448827529848,0.04049685224105878,0.38410904816665215,,
1.1790070000000021,-7.9749378248717955,55.67896802822314,175.848299966031,2.0852302564454646,-0.7392561161472366,-0.5020528770602622,0.5636760227604996,-0.134052163558091,0.6392608081947604,,
1.188523,-13.68255300779022,56.43573282107443,175.48957784668553,1.4247066448742434,-0.5286440243035608,-1.1020253792150367,0.6248032934400399,-0.19914196943242013,0.8762448686583671,,
1.207763,-25.466477934253867,55.7022103552044,175.02483622936708,-0.5215525298086804,-0.9446294447293239,-1.85366177243992,0.693292236180551,0.1065415714238598,0.9161760288315295,,
1.2171489999999991,-33.14562365783044,53.85401085095986,172.88615604638673,-0.4261031951522048,-0.7011303311356696,-1.6888630397302153,0.9205001763977497,0.2739795831598342,0.8281326264106496,,
1.2265690000000014,-40.27368138730711,49.86331145861089,169.7608723084566,-0.30750358771615327,-0.4287071426226904,-1.2444441959733448,0.9915684971220711,0.6556467704975243,0.4975029499215458,,
1.245902000000001,-45.27342336343083,36.440222254505215,162.42045704565496,-2.0447844534131594,-1.0290584366372022,0.4957226864718158,0.4810044484007808,1.3574018703277841,-0.7117630495189288,,
1.2552780000000006,-41.2254596895623,29.872032053867148,157.8948699063619,-2.440794206981511,-0.665595479212213,1.5976671811346472,-0.1924923235835203,1.4676716175217783,-1.3483540346598828,,
1.2837420000000002,-9.025752401085546,29.665675377365304,145.39430903356987,-1.5871902358586816,0.7725377810008894,4.363595276616854,-2.173880722858334,0.5151275073090021,-1.6784890177271918,,
1.2934100000000015,4.003703437876185,34.910233555345975,145.88082453609113,-0.6433844683152695,1.443296819341294,3.5760569405927427,-2.4110385725543764,0.38209555817649676,-1.2969598167995022,,
1.322172000000002,47.2721862568204,45.64732870630031,161.49124318675237,-0.3571907549410948,1.5425831465058855,0.3370986313422504,-2.0362850311373237,0.32890942641438514,-0.8040411729373579,,
1.331353,60.41773760571834,47.23188750219282,166.45608671444197,-0.44693687453616443,1.3869660980042045,-0.5811675355662136,-1.8288778341819985,0.1969791222244576,-0.9154135885986602,,
1.3409720000000007,72.41024188549153,48.78819012072175,169.97490959360942,-0.37902893478999755,0.7164869622516141,-1.22004267991375,-1.6348889264288813,0.02413414969650892,-1.0813835356354848,,
1.3504269999999998,83.10978010680478,50.59735448770308,171.4236748225942,-0.4787136103418501,0.5080389733712966,-1.55464946092877,-1.4255950645915374,-0.1324210435618146,-1.3440187733094355,,
1.360089000000002,92.87050042554733,52.96055717863734,171.1391946205595,-0.4231906756654956,0.4906710270109437,-1.754469216094028,-1.266828053126717,-0.28328703305916486,-1.592334070282245,,
1.397705000000002,140.7998270991444,65.94875196605824,167.94539544053418,2.729708761882074,2.060915276376171,-1.8101453247829489,-1.3801057995090864,-0.33087298145865607,-2.619704429418141,,
1.4073689999999992,158.17550917372682,68.02426238980638,169.76447516953337,4.471312259294459,1.837562985872211,-1.6438464818585568,-1.4131934144166736,-0.14159749164322424,-2.8384192460420357,,
1.4454840000000004,-140.2243501742716,62.80940291358376,170.8927408512211,3.5685411287334268,-2.1628311681474335,0.31783429651499057,-0.9623673168722463,0.7730594138676748,-2.6709776240226883,,
1.454848000000002,-129.50518428473723,58.518849016550554,167.16290420317566,2.527163112180148,-2.348144087118082,-0.17546658503311682,-0.8703729197527019,1.04217181908603,-2.6172717556782765,,
1.4645050000000026,-119.17928765088543,53.37921138659862,162.70021435180197,1.255770080914663,-2.3755355035720327,-1.1684736736166104,-0.8524178689509111,1.2936086693300668,-2.6056558754161516,,
1.4834570000000014,-95.30464989558034,43.83040021440484,154.16961720727812,-2.1039725288369504,-1.1768592124140833,-3.142916970425179,-1.2739501017557642,1.5157086289281836,-2.6869239949261465,,
1.5025270000000006,-60.274498200936556,40.71709650139896,148.49678885445533,-5.549044802496133,-2.74046801050534,-1.7046364012481763,-2.5363658257943453,1.597621436225534,-2.9484765979649605,,
1.5145110000000024,-37.63840155290152,42.35966428665271,149.75109889491074,-7.264045808170226,-3.692454616844636,1.43539224027894,-3.0768495163574197,1.461704042701453,-2.7561778392575964,,
1.521758000000002,-12.780241079020517,44.917207232604376,154.16367482429234,-5.660305923441084,-2.3890094361976835,5.050740020157542,-3.410529786367192,1.2465722734712539,-2.558911302307965,,
1.5336990000000021,13.613668082011296,45.06003705849909,160.63878984482093,-3.5053785556272072,0.23208243336782414,7.229431703476686,-3.452492241244703,1.4066926423988004,-2.4510506233223466,,
1.5527300000000004,59.73074718740669,41.87756605852549,166.65478258452947,0.2792527271499081,4.025331465027218,5.988780894635569,-3.0578935275305597,0.9391858512576264,-2.5606155365364986,,
1.5622310000000006,79.58370770830545,44.2379273811538,167.20472993664603,0.6374377092705203,4.961263986806177,3.1365129081139353,-2.934541949178899,0.2010766611777495,-2.60449670158962,,
1.5810790000000026,124.11232303242753,55.60878506738081,175.3690378793372,0.32181987914694854,6.2359168932109625,-4.327375746536697,-3.0796027479205095,-0.7826562752578345,-2.5137286130507337,,
1.5906520000000022,152.75073892744692,59.54503960274853,-172.05065688767263,0.9732773812646639,3.770457965192067,-7.097702533034266,-3.0337594501378913,-0.8554386688797057,-2.338161637775444,,
1.6001590000000014,-177.7155405054634,60.49601734893375,-160.07598824581433,1.6748831727649642,1.347174602833598,-7.992034932005059,-2.8060378087816686,-0.8870131397612084,-2.7377473755547954,,
1.6096770000000014,-151.7870310782875,60.271868796700105,-154.97139204641684,5.132564667806203,0.004479129969832895,-7.812751342288677,-2.3812226640581198,-0.9375656457575766,-3.49529976625123,,
1.6285820000000015,-116.40915552206785,64.78891218623642,-161.76520599045716,7.511866450134049,-3.8360566133357334,0.9882571077117621,-1.1162065089613933,-1.1795132771013805,-3.757235887660977,,
1.6356409999999997,-96.97220923803116,69.9274778699369,-160.89358285035425,6.550181936258845,-4.884042139777214,3.3348689012938864,-1.093148039274922,-1.444546504392121,-3.418671851942331,,
1.6548180000000023,-69.65180655239662,72.3818156032024,-165.82552755249932,2.441599356167448,-4.116421306993779,2.511375681775985,-0.5609735962134748,-0.09936116167517954,-3.1010741196816056,,
1.666767,-66.52734156784277,69.23574170379291,-177.66443718512477,0.10521058929210635,-5.115557128424888,-0.4960717170863058,-0.294779633521688,0.5952916323922842,-2.9605494431330874,,
1.6738350000000004,-67.22618810199877,64.13133443721371,169.5360609662363,-1.9665299718501148,-2.8590740073130445,-2.832190902104311,0.12789949967864028,1.0174099645754384,-2.432429371445978,,
1.7023560000000018,-48.086780184664065,48.4277750606243,153.03098915906133,-5.929459279571531,0.32748336957280594,-2.7564594650041467,-1.012836941157706,1.4397807987785554,-2.084884989993758,,
1.7238900000000008,-10.86981501302101,44.84231617730338,159.4108970619988,-5.678510065881188,-0.6743320414434573,4.429182477122633,-2.51968268550965,1.358146524987415,-2.0178727530803453,,
1.7429570000000005,24.674160191150012,38.06293961012148,168.51851964902397,0.4931101091300592,1.1316191277074683,5.925302504294389,-2.2422963066554993,1.3346375089949032,-1.3476654822306815,,
1.7524669999999993,38.686970732661536,36.33090256076093,169.43904125024804,1.81746008952687,0.9778559670531652,5.0614961344155445,-2.1273479421775607,0.7658031189925913,-1.5125099962641408,,
1.7690190000000001,63.33017738562877,44.692344252572354,169.80441553047834,0.3829082487148478,2.5951293418405332,1.8713614658981796,-1.945843071912587,-0.799743393412374,-1.4282987330106736,,
1.787777000000002,89.06898240549087,58.31503425913763,178.00938718012247,-0.9661806123946864,1.9811840932359686,-2.049256772740532,-1.6785155603189723,-1.1838342009990894,-1.1120639104565464,,
1.806871000000001,119.56598377587513,65.53343513451827,-165.92460857197972,-0.4259028731930163,-0.7077888088547185,-3.2629650887885684,-1.2381350671693876,-0.7078040204321878,-1.2647688155951784,,
1.8188190000000013,133.49635355016906,66.1352856985934,-162.2576549182551,-0.2774140998564832,0.3320092293483288,-2.9601784966014684,-1.0640916891154917,-0.4278595242983495,-1.8111033423068528,,
1.8258930000000007,144.09582040174914,65.96883169458481,-163.50614460411023,0.5549623786102691,0.8408342831400338,-2.3816142312672355,-0.833298735730677,-0.22186064975719746,-2.189326328963625,,
1.835324,152.8333948842712,65.77026147335003,-168.62704495188783,1.6779877973401587,1.5679964384814757,-1.6547366375898236,-0.7046674946439723,-0.13387964258774868,-2.6214583720014546,,
1.847328000000001,161.07768098575272,65.96961690063769,-175.79726529625404,3.4543902118358645,2.202637299184013,-1.149897797455339,-0.6645297033336641,-0.1311762695920019,-2.9415454055838084,,
1.8544060000000009,169.67923986611842,66.35296229673179,177.25313071306212,4.78644433710901,1.3972676078350392,-0.4723666802344223,-0.6964148791672653,-0.08561567217349568,-2.966199877786767,,
1.8639779999999995,-179.42402598904476,66.1606287368037,175.4028109493176,5.085610100635406,0.6268369452871841,0.4533682850252925,-0.8774803024492775,0.07344538539725046,-2.923768036587247,,
1.8734819999999992,-165.41678632723395,64.92539717896112,177.10272897468735,5.1311730140125835,0.004349421964003512,0.5149120446104324,-1.1512209008299739,0.2910017134581218,-2.8240475323174454,,
1.8854550000000003,-149.85789434472883,61.78352706171979,177.81388009382175,4.424191958665689,-0.8925534278834938,-0.15117777577302763,-1.367763732847567,0.6863814721851106,-2.642461728400064,,
1.8925049999999999,-135.17359710157857,56.30843050027658,177.84354820576277,3.1857632751334006,-1.4661799292361088,-1.1677414861539965,-1.4703583819940695,1.1467438768517002,-2.5163429255169527,,
1.9234970000000011,-98.35033877447876,36.621528447913505,166.34949023267245,-2.865322504041197,-1.3528760255010026,-3.083822382604984,-1.6268320558155076,1.4810747043229802,-2.4771378565591697,,
1.9305529999999997,-83.02861988027607,33.98718791051909,158.86489442041494,-3.6969163049056024,-1.830207366233614,-3.001613227560036,-2.2074514319250493,1.2997390641988211,-2.759083184955169,,
1.9495220000000018,-41.56644873328693,39.761070751101165,156.42249306160375,-4.981556459754641,-4.225721068714325,2.05541994469408,-3.5768678625026444,0.6104092757439642,-2.5880778102209234,,
1.9616790000000002,-15.824356067577739,44.48303979697055,162.25500566681137,-3.332089743853342,-3.492040074560273,5.543982428410324,-3.8975744690126906,0.4785247879265413,-2.30153353438842,,
1.9807349999999992,36.14458888998288,42.521155333182925,177.0068299278956,-0.8118197991875682,1.1074236128383794,6.54802906846021,-3.4559449755024207,0.8337803524104495,-2.218503212688269,,
1.9902310000000014,57.667797888974135,41.25107361956655,178.57482912569174,-0.9195138719720308,2.700746544110625,5.306617364820348,-3.19443830467066,0.374575883181109,-2.5653127680467795,,
1.9997469999999993,76.70954778701983,42.94662136490329,177.86839785760816,-1.4169812833439486,4.736846278796261,2.4392916655542343,-2.838670234192398,-0.24845414754280581,-2.696739572398927,,
2.0090600000000016,96.05563380468107,47.130107026500866,178.56203990739255,-1.102591085109193,5.0013661113399595,-0.8477634127226498,-2.761543459763207,-0.7437976969887689,-2.603202599689966,,
2.0185650000000024,119.39164065166835,51.66115324771542,-176.7892635100289,-0.5774103500799465,5.463756050036638,-2.8631937126529374,-3.0219056785583907,-0.9398663172435109,-2.6233816512964307,,
2.035146000000001,170.74162079346854,55.421401714944984,-162.30240242698673,2.7105233282455234,2.9961040987993672,-6.02988062878358,-2.796597563957977,-0.8624744881423374,-2.806871389205861,,
2.0471749999999993,-165.6668949394076,54.28364446052959,-159.25685363402096,4.490584373272189,1.5233778691896538,-5.2744154035165876,-2.637916472667834,-0.682168748266104,-3.2553365764044484,,
2.0756520000000016,-111.25114975449685,54.46859525766769,-168.0758933525279,5.7171286063684095,-2.665206705268811,0.5140026178537663,-1.8726555467192463,-0.6730792987631666,-3.5269568182249964,,
2.0851620000000004,-94.15644390816347,54.9821617853742,-171.93127774309428,4.9586965761493795,-4.082685812534457,0.9831672169974182,-1.9318532991990736,-0.44431257449908984,-3.5642072708377825,,
2.092221000000002,-77.34415272183828,53.947991125661765,-176.37302430586212,2.2949836363667866,-5.4431506097317905,0.8712106996820526,-1.9707084254026812,0.005177196132846663,-3.626357630921164,,
2.1041600000000003,-60.20999275699915,51.514807356806365,178.01364555969874,-1.0251263534388735,-6.6914123650764425,-0.07595060247350495,-2.0891512961894736,0.45480542449854144,-3.850884761159613,,
2.1112029999999997,-43.365984621545,48.60416064562241,171.533013712385,-5.6562297303083895,-6.752584164294311,-0.3845293892076002,-2.109235444178845,0.7754694188011261,-3.879364011071677,,
2.123189,-26.809393272566243,47.24022713836441,164.45195506304196,-8.190451224083978,-3.313529159589303,0.6046506828411122,-2.1225397875707115,0.7294881402696686,-3.873731532264698,,
2.1302330000000005,-8.800105729091603,48.54310691539059,159.33112075615855,-7.852870109246528,-0.8591894601004655,2.403586550432297,-2.3834526339699034,0.5066664697512788,-3.696522706985645,,
2.1423750000000013,12.624473028981512,51.48621371008199,158.83214837092237,-6.116527017923157,1.4695319329157575,4.618298316455862,-2.7835828223558132,0.44036086015984993,-3.3864791809213077,,
2.1519070000000013,37.879948015860144,53.41932235630163,163.22489007030464,-3.1660446471582553,4.359889916941437,5.663557380047097,-3.0320452509420286,0.640494671524047,-3.1352077600222787,,
2.161405000000002,62.94637579005133,52.70001613666813,168.54007560913462,-0.6121293523752878,5.529866267271534,4.726931037644355,-2.883737888028889,0.8710586766130384,-2.9532841464499326,,
2.17089,84.69417913658228,51.20713916900865,172.16843056694063,1.0659703846789415,4.79910452164186,2.683259895568434,-2.592524157494686,0.7397336775974075,-2.7060446360592003,,
2.187296,124.31928315069536,52.13936703810153,176.81864180016913,0.737039291964634,4.476995657700351,-1.7358916230668302,-2.426069151583122,-0.09710746579243829,-2.5891927602623674,,
2.2063880000000005,166.66106807112752,56.974804917103434,-172.69865088789197,1.3424441296965677,2.300863496849256,-6.067057400276073,-2.493286545176161,-0.6006266901874638,-2.4514635684774078,,
2.215854,-169.6655836110502,58.85592802282961,-166.0193639493013,2.593766634586354,1.2014474719259454,-6.195272743090227,-2.3990309348417553,-0.8274355468957736,-2.6841840919667646,,
2.227896000000001,-146.7875044756249,61.56623212024909,-160.1853218591577,5.362704676529506,-1.4257650206462953,-5.955683610116333,-2.016859748920355,-1.1708642489882783,-2.8116003548062998,,
2.2373119999999993,-126.23042066624126,64.19875546249307,-157.07899753044558,5.982019250813699,-2.786338765182588,-2.7441497661943433,-1.55520974263098,-1.167641958082531,-3.0432659579866987,,
2.2467700000000015,-107.82013437627177,67.10731675765234,-155.56139891516304,6.363222959332544,-3.477319260311405,0.8444124097753467,-1.159212699392608,-1.138405319468647,-3.055212414717599,,
2.2538389999999993,-89.23941502342133,69.72828161512543,-151.78456127298512,4.971418021849214,-4.084421231916279,2.6021709705982046,-0.994405690961597,-1.0715643778735766,-2.7044774840993027,,
2.26595,-74.87483233383804,70.8537601467669,-151.2473509195582,3.406438271369122,-3.0810547852685244,2.7634619372984393,-0.745479786749308,-0.6594919304792188,-2.60009582848355,,
2.2847640000000027,-70.1400952385684,67.72435063176829,-171.27120220303635,0.5391869515027052,-3.490636392570999,-0.1936758516680307,-0.08885921326539269,0.5096465586216742,-2.382106971153609,,
2.301597000000001,-73.04202970518075,57.479672495400244,167.7290292900736,-2.477695462780555,-0.4931875973549947,-3.245726144633542,0.22631433961899516,1.1116155459263215,-1.7063150190491745,,
2.3111180000000004,-69.38460879122664,51.82112513315438,161.9049162989659,-3.068789424225212,0.5833052245800506,-3.5401413553299736,-0.11253368292634801,1.205090738003772,-1.762531611170737,,
2.320550000000001,-60.19886382425403,46.971803163100205,159.3420448590494,-4.195093472672931,0.3469649966605601,-2.8992929511770216,-0.8084932836310674,1.3119106556992288,-1.9091214590792176,,
2.3323269999999994,-45.346856967362186,43.69627081288393,158.95497226130774,-5.770601520483447,-1.1941183645220645,-0.7057724710893782,-1.7217926274892863,1.3537429331410993,-2.1924557253852592,,
2.339645000000001,-26.406870064616992,42.40110963018572,160.12376368189362,-5.939998553517891,-2.024246283595062,2.9919327994387355,-2.505672688160693,1.2090215918658909,-2.355775538722333,,
2.361134,13.069143976687199,41.57882374140283,166.50299969230474,-1.215302427689453,0.8550498726699858,6.74951185932845,-2.736700769902728,0.8633404938108464,-1.8671200515554216,,
2.3706519999999998,31.040320167043497,41.46414457502207,169.28746092075954,0.6019489367541703,1.2098660790326874,5.529447256845982,-2.627330832724602,0.5867493190457533,-1.8302939636364568,,
2.380148000000002,48.03754740548407,43.18965854255731,171.16503130986177,0.07558320514800196,2.3817331393497234,4.66452077032409,-2.5365171725281583,0.0891144175293805,-1.917249846250734,,
2.3895850000000003,63.92218061337683,47.30120354535428,173.23048149189353,-0.49933171824608397,3.0718675668845155,2.375978884056599,-2.32874152195696,-0.5060410827439054,-1.8469283658984308,,
2.396476,79.32040978078079,52.936782568922844,176.6740379898236,-1.0540363113515105,3.362080283634,-0.39305632183827954,-2.0667688251503553,-0.9423745034694996,-1.6795870454697368,,
2.4060419999999993,95.89335022992445,58.64661286308629,-176.90056115133555,-0.9064001824535632,2.0144717339749683,-2.780988593492913,-1.8652824096983178,-1.1296227846287235,-1.4627075429859708,,
2.417981000000001,115.25308928617535,62.774165706276754,-167.58008792791688,-0.7658273061086903,0.645206811230388,-3.735198157004218,-1.7636699848536523,-1.064064811629162,-1.5202842899612727,,
2.437011000000002,152.54761995097,65.4251428708001,-155.23191804082649,0.4406343132093824,1.0110507010702747,-3.834335768165032,-1.3006014664248617,-0.6918617466584243,-2.3976224261094927,,
2.444154000000001,166.79047880570394,65.7683276271822,-156.90440773743595,1.9338116657703228,1.7902237050177092,-3.2552220354895223,-1.0497665822339437,-0.5407224634562107,-2.9314165845866382,,
2.4560580000000023,178.40576151887572,66.49135532207922,-162.89462082440227,4.46904316140643,2.2908041136940005,-2.4640750931692526,-0.8359178782743086,-0.45985792807582954,-3.325268379192429,,
2.475003000000001,-160.99853653238458,69.21934190544359,-178.5460044787161,6.859811259645302,-0.4694870817954141,0.2766800611765417,-0.7489915299884474,-0.3392929561548082,-3.4988663900478723,,
2.482075000000002,-148.30166508869783,69.25807842230968,176.15110682000528,6.534687656189455,-1.7681875402684117,1.1888273587847227,-0.9028535750279518,0.011131159197304818,-3.4381720897736097,,
2.513223,-108.59040677383616,54.26771670468307,165.3832416489738,1.0727754128114795,-4.182681604873669,-2.425017531298412,-0.8833510946770529,1.6944422052945298,-2.9070225765191813,,
2.520371000000001,-99.00577088751805,46.24983494377164,159.104938399462,-2.1027924229474264,-2.786577963350921,-3.1983192964915577,-0.6820951539241736,1.902930438478852,-2.7305856248199607,,
2.5322519999999997,-88.08931906238989,39.3665711613862,151.9158527027412,-4.3941714816408135,-1.4122588421382871,-3.473203932722533,-0.8884861144588934,1.9209025430771822,-2.8764437655828607,,
2.551127000000001,-55.078664191726375,36.02041394968065,139.93222245953717,-8.356430226889673,-1.546692850253504,-0.36477633125863523,-2.434014135125165,1.7493540562686354,-3.159571541586714,,
2.5581929999999993,-33.796778713355735,40.264175341978785,139.07363233070066,-7.339642990861069,-1.9703229695845224,2.4736376680594256,-3.095305047858616,1.5385643698732465,-2.8028535084277855,,
2.570347999999999,-8.693783869665738,45.15709314673727,143.9040668651132,-4.8563311827012665,-1.159339540708866,6.381400381510954,-3.4845937606041946,1.543217267916303,-2.451989955922132,,
2.5798880000000004,18.956938722866816,45.85579913802657,152.26830329970895,-1.8955567648591602,1.6034961279503357,7.672375864479662,-3.3548178776595634,1.9282451301801817,-2.2904722802443613,,
2.586953000000001,44.719079980660624,43.330279690465,158.08723680400584,-0.618966276682433,2.9277046308308647,6.86727117160682,-3.118303655083521,1.9887961329723367,-2.4666823090819077,,
2.617706000000002,103.86246716699554,46.25836402111956,162.26070565565715,0.36601367849396627,4.718784514108558,-1.4487773007286733,-2.699275712746073,0.20787021901809447,-2.40388252622631,,
2.6343549999999993,143.0550656575373,54.43154317687215,170.149333991738,0.9263467045553532,2.7326224699815462,-5.260534770229971,-2.5036580139311795,-0.295246174862729,-2.2092060940715195,,
2.655864000000001,-176.66716983589885,61.26325155242178,176.79856477039274,4.686125211113356,0.4387645141602565,-5.596237340032726,-2.080347901218803,-0.4675279511230501,-2.98400033033603,,
2.6723740000000014,-140.12405313911526,69.31327149705902,178.95730583349248,6.525294494832008,-3.5672269431719714,-1.3449623229170367,-1.4306288551957231,-0.8276137180067223,-3.0895542683602417,,
2.684248,-121.98537213737806,73.05154921247485,-178.02486229732378,5.2525530839167915,-4.34211698623764,1.3822261297143372,-1.1641255228784297,-0.7508491064287509,-2.8346062525654396,,
2.691490999999999,-105.0282072967754,74.73142974204309,-175.2210200130753,3.574628912655216,-3.469142740141441,2.8061350543285117,-0.9197318466085636,-0.38840322302824515,-2.7008616864796218,,
2.7104719999999993,-92.02533887405396,70.17992695581208,171.23029925972375,1.355279786572139,-4.807295523203512,0.9665424108521541,-0.06618557516399143,0.7363682730683553,-2.4528410982379913,,
2.719978000000001,-93.32642507809875,64.15816347940711,159.56869738149825,-0.6801596185251866,-2.583349866526618,-0.6357397449785963,0.4022932284296584,1.1427889381004497,-2.0924995802060713,,
2.7415280000000024,-89.29959649242087,49.789593505371165,143.71899103897542,-2.9484539324646137,-0.45729260530986027,-3.4816673315812285,0.5238774461932073,1.3800294856999464,-1.7838979369660404,,
2.7485040000000005,-84.4155563055455,43.67515854220543,139.76147713769126,-3.405268483289983,2.6313007646976314,-3.053673174980319,0.23121043126233462,1.3766848400785558,-1.5037800975604434,,
2.7580290000000005,-72.92977442080975,39.80290814269074,138.50894909775798,-4.3675489358299,2.1442135906385467,-2.86982848889463,-0.7926055245217176,1.7077319960626711,-1.7814788546037177,,
2.7795640000000006,-35.23852844172366,39.052604285815434,142.52420934824258,-6.105378603168159,-1.4754217507498697,2.689182433409584,-2.5082762834186325,1.8938421092936448,-1.9129627299589644,,
2.7866269999999993,-13.676236323822263,39.424166759933286,147.80058412706722,-3.690639762002555,-1.1077922640028264,5.607447881374178,-2.782324480378323,1.8470416271998775,-1.6818919733110496,,
2.7986020000000025,7.29485352874553,38.05462134708854,153.38988989948447,-1.3037489173039216,-0.0790239478526814,7.0222593967287485,-2.716084663799708,1.8415087344636627,-1.5161717248692101,,
2.815146000000002,42.654472873502854,37.3282768416454,158.40658634348026,0.9453126978011749,1.316085382201864,4.9613403101796,-2.5542439077194334,0.9122341969996269,-1.7470685057696305,,
2.8246740000000017,57.963254041945945,40.688402168357825,158.92357239933412,0.14888526180814637,3.1996532896979257,3.380030940083603,-2.4618359911831007,0.24369241046423354,-1.8264401934463963,,
2.8340090000000018,71.58126699111904,46.28964383710453,160.20724718082084,-0.1564260961771334,3.598899326420806,0.43970127973481204,-2.2434549364195524,-0.35493333076925737,-1.621043967651749,,
2.852988,102.23784812652282,58.094667925163684,170.85919406015336,-0.5929580903383853,1.486383764637383,-2.7499714130726267,-2.055443898786669,-0.6484262002534006,-1.3555672955245068,,
2.8624880000000026,118.8721108415231,61.720832223266974,177.7442951662037,-0.34666205349656726,0.7864171291508529,-3.306409797057919,-1.7301325222484818,-0.550495317176634,-1.5064437182268542,,
2.8815279999999994,148.48892698293233,64.30916808973232,-176.7552863440588,1.2612574209420762,1.0524346975935222,-2.481942011126877,-1.2356001107151027,-0.20008021222288477,-2.347524917830902,,
2.8910110000000024,160.72650879761696,65.08642334643417,-179.42845894765796,3.042432703619656,1.5895007699984798,-2.0835947124137504,-1.0423195065954785,-0.18997165783126624,-2.749927521192058,,
2.9005720000000004,171.70038776790577,66.55024879575753,175.79343558676777,4.5171269533888285,0.9135990028068821,-1.8077283992639106,-0.9102325268176238,-0.2639010438804569,-2.9604791885308344,,
2.9195220000000006,-163.6966024295072,69.03948621367405,167.22701176564516,5.863582530202775,-1.52001201447122,-0.3874011338361144,-0.9804747648186277,0.0030354033159362636,-3.1775653385089955,,
2.9290249999999993,-149.00893677130463,68.88819512637757,165.71106993694931,5.287751784523177,-2.927157398645028,-0.04995596573465256,-1.0197988740587174,0.2764190950699946,-3.047982035640134,,
2.938732999999999,-134.29754723297404,66.98080020311826,164.85134727859432,3.861735709451259,-3.555561833071417,-0.06706552530082634,-0.9740359621378909,0.6486907849557272,-2.901807623819371,,
2.967244000000001,-102.1049583285186,53.38873689816911,153.31344387357714,-0.4427335137086557,-2.38761804691261,-1.6395845877491555,-0.5067225721875505,1.3262133923461,-2.493371991654282,,
2.9767580000000002,-93.53965233487135,49.03134421961432,148.01838804427692,-1.6878124273408366,-1.8112969034667727,-1.9338875210791968,-0.514255827103484,1.2859883310489797,-2.4557386937358583,,
2.995578000000002,-71.01604817049072,44.26374124043713,138.53919163211333,-3.725396601840834,-1.161741560720854,-1.6780609936618398,-1.22421974898882,1.4297765075574644,-2.665569254459271,,
3.0051520000000025,-53.783349911650255,43.826374525411616,136.8199899982181,-6.12826163017551,-1.189452565181254,-0.3504789759251944,-1.7762111804989584,1.7349891888700908,-2.7415919051545687,,
3.014648000000001,-32.84711097018892,44.208289419828084,137.38056935676715,-7.295940351277887,-0.1900220830495078,2.022503253400436,-2.2592410687121895,1.9961964578035023,-2.801199530727644,,
3.024350000000002,-9.400753725913939,44.82854296834519,139.95872537047762,-6.348532805535242,0.6484739265004034,4.25518799175611,-2.5917674562748876,2.1164531481774715,-2.7789177927081963,,
3.0434020000000004,34.75961704237322,42.99962268468455,146.24458004231425,-0.6167347757409475,3.138871902745699,5.345372972029246,-2.2535054906298506,1.9489879837017852,-2.31482928759584,,
3.0529159999999997,53.79899910055602,41.889296598069706,147.38109018548442,0.6081160006408232,3.3703453524786426,4.877038691865887,-2.2328513718880374,1.723516786874994,-2.3462798697358047,,
3.062431,70.68507062783003,42.918211831176116,148.086834969774,1.660619064595881,3.87655569595096,3.5463115609691327,-2.219742307163554,1.159603389030712,-2.1391937856893204,,
3.0812380000000026,101.225622821175,50.58622477124214,151.9958297803921,1.2129253418776713,3.132148561328666,-0.9667846708218123,-2.2641186935110023,0.26142229855798427,-1.8092838920858683,,
3.0907410000000013,118.0975251408063,54.96916043995815,157.40243954980275,1.146486418795567,2.887765016136923,-2.4209635974172854,-2.2168812317351265,0.08573279914253594,-1.6114590893299043,,
3.100329000000002,135.22141015112004,58.33271941519425,164.42919883856854,0.5691257116791975,1.294092754085099,-3.175130089292534,-1.996108320621794,-0.01535502341050837,-1.46103568528913,,
3.1193729999999995,168.01261094572675,61.6396060631884,174.45732387196367,1.9216399737642622,0.40861331120280536,-3.306059984169909,-1.526654991910918,-0.0560975864398425,-1.9871209763750417,,
3.1288920000000005,-178.7608720305957,63.079051910837016,174.88859204381387,3.0600038217277334,-0.3260245533501222,-2.877663317554839,-1.2497420010518032,-0.17160660076982737,-2.2597150854158414,,
3.1478450000000002,-155.14000920004383,67.77554375923407,171.26730040905565,4.755672367092422,-1.8740598483503732,-1.4743464366106835,-0.9941374208774408,-0.3941572753204791,-2.5031605912024584,,
3.157368999999999,-142.80638021097184,70.36674075169928,171.5188154387425,3.8470703951538505,-2.822528915932047,-0.8551607551444078,-0.9494948121154069,-0.37895823508008425,-2.2562916974109632,,
3.1668020000000006,-128.72621896034542,71.82988914549226,173.7466719454073,2.9513520470695354,-2.898103449467398,-0.48200793680347936,-0.9424200408090835,-0.17186029031455372,-2.2212979221228917,,
3.18581,-104.86703422837026,69.50665553111935,174.8877016768313,1.536473704989199,-2.1372942408699864,0.39930175487751246,-0.6570971897753748,0.4502372110236708,-2.08609294590813,,
3.195648000000002,-98.32295032360086,66.2978800816311,170.54331488579464,1.0555099105811063,-1.9334306545165194,0.27785408788299,-0.407984657458272,0.6997359999405742,-2.083614361324603,,
3.2239970000000007,-84.57425336649554,52.71154321433607,148.96175248557515,-1.4046676655224772,-1.202420971465095,-1.4103709013422912,-0.2408260260604816,1.179411310124117,-2.3462101132583317,,
3.2335069999999995,-74.99624499305578,48.94987977441991,143.4756430642534,-3.150143969178478,-0.6872639803566092,-1.9420313025106517,-0.5899622819896623,1.2999766682419778,-2.584011106753615,,
3.242826000000001,-61.21919357864742,46.968604020611295,138.6278567698999,-5.425324079604615,-0.9980216958449678,-1.6861093529213722,-1.1903559527386192,1.4705496610423612,-3.01708973050221,,
3.2619320000000016,-21.22728588475696,49.22614097333555,136.5443704990042,-6.96763274674317,0.8998285506770453,2.6605213888611896,-2.365800538812995,1.720339897176974,-3.0759481376914937,,
3.2716309999999993,3.9227207227511136,51.46821298396475,142.333155680019,-4.204005318997454,1.589944901001248,4.8757248735868535,-2.721929604223775,1.7498171870222206,-2.725917867391831,,
3.2906709999999997,52.068916904577684,48.9085182996066,156.96676359608358,0.8722568140083614,2.412978469806439,5.249355921075458,-2.3657835052637144,1.662176715663436,-2.1872975683643707,,
3.3002029999999998,72.54015565524418,47.625505209084004,160.33960816682747,1.380017306859492,2.8745433878233935,4.410306024576383,-2.4458440218133215,1.2284397784849774,-2.386656517225925,,
3.309668000000002,91.95453219494416,48.96693278856624,162.10889235626567,1.469380585790437,4.601571941595666,2.397745273085106,-2.5325047869807884,0.5801515362943954,-2.549423445230089,,
3.328569999999999,135.8934678907713,56.91544712200697,174.1115272748173,1.6414139872721811,4.140805635756793,-3.7416292807545988,-2.8675835891528605,-0.29168241619889645,-2.194137746204224,,
3.3380870000000016,164.1374814733143,58.810107554721505,-172.81640529254466,1.6999404011540404,2.5733139516902375,-5.360199785732994,-2.986448164158685,-0.40327793158239805,-2.186574847865383,,
3.3475920000000023,-167.6443523570567,58.561601965028586,-160.92350308607766,2.6466615644729585,0.9047463523261984,-6.870060788172108,-2.854820252179402,-0.6161399107213233,-2.4585271500870722,,
3.366574,-121.62639100626006,56.37441372674805,-152.36399977731332,5.514492043868794,-3.472848220438036,-4.729561827007185,-2.1422007706895685,-0.9136942589427365,-3.218544801799792,,
3.3760949999999994,-101.61882989858825,57.912824627956255,-152.5613546399884,5.937195894153614,-5.3554017251950174,-2.2862351207442186,-1.7863391620357563,-1.2752596358414894,-3.4045135531767654,,
3.385618000000001,-82.75519678554029,61.28582479600765,-152.80938390506256,4.971576525292466,-5.702683110025867,1.1232090223926927,-1.3914227001624377,-1.4719152387445944,-3.3075110393985585,,
3.3952109999999998,-64.96919802718166,65.14411896941277,-152.54314651690785,3.5499050597800923,-4.48509285911573,3.5649931387707188,-1.074133977933138,-1.4174139042204237,-3.126360978138682,,
3.4046930000000017,-49.17071051217077,68.0443001259782,-153.5599782712084,2.3520588800395466,-3.9832490168369254,3.860290396734004,-0.8590559865434779,-1.084280755891057,-3.1064995875343975,,
3.4141910000000024,-40.07984573734701,69.6778497462217,-160.96517148010776,0.3344762156643507,-4.846726968406813,2.574274857339571,-0.4803881564024309,-0.5560297844536912,-3.1798467762051748,,
3.442640000000001,-48.77222482305912,63.3599861532312,147.94988215059004,-4.87194464907577,0.223861666844785,-4.3700405637772315,0.5354531962332126,0.7279455499197568,-2.645770621936455,,
3.4521580000000007,-42.68752289051485,58.32472281991265,140.0131009340487,-4.916307708053612,2.521023091489257,-4.7455944757579385,0.11224567412194253,1.166007904216312,-2.6519473871628985,,
3.461641,-26.947317589776322,54.72663108375311,138.23992993926174,-7.283910811681791,2.5179011449186506,-1.6114709949791968,-0.8466729085756489,1.6800506112684939,-2.9834194500039333,,
3.480875000000001,14.977744822985885,52.09703574787006,147.51545125268765,-2.506761479189582,3.2931697116973337,6.551086343781984,-1.9410980058075202,1.618854561837502,-2.057277381465417,,
3.5094139999999996,58.682983737821885,55.71387190065113,160.8120362847252,1.2007074509704942,2.461499266983455,2.6606366520326152,-1.5222671284798457,-0.21451961093613728,-0.9112718764346436,,
3.5187510000000017,69.48597898007128,59.71435356433585,165.52558445766627,0.9298867497827052,1.1539521756580993,-0.17712382823163794,-1.3362057317964842,-0.4294628057197062,-0.8863869863697196,,
3.528276999999999,84.18943728953317,63.42559894140933,173.5620564174182,-0.4592194224278167,3.1407993668938436,-0.9745467588950556,-1.5098515221133486,-0.4714802481843566,-0.9828616792911782,,
3.556749,125.76277170596855,67.46185359388106,-155.8373033116332,0.04711541039512216,-0.24667007718126646,-1.8102147694859947,-0.7779573864860344,-0.4003515186352992,-0.736891186949553,,
3.566172999999999,136.4797460403048,67.28750189235502,-149.80261553532287,0.2965984830976276,-0.10003474014227134,-1.1021164987121754,-0.7493925360616096,-0.34572545743624855,-0.7728532867610229,,
3.5758730000000014,147.4040494235316,66.85532013227754,-144.1059677628049,0.49155045894255917,-1.320265362912536,0.009530406584689368,-0.7604898276100271,-0.3919225297454014,-0.8743691786158599,,
3.594804,176.64431303681857,66.1830254568385,-132.03581569906586,0.4087181031965928,0.41144657409935853,-0.9385777410768297,-0.9981525747654715,-0.8253313622848263,-1.623563080261589,,
3.6044090000000004,-164.98467117414862,64.47574406862003,-124.83588047862118,0.8804040927482081,0.2841660153229409,-2.010995426845844,-1.21693771794914,-0.9895404912601993,-1.9032265138937252,,
3.6139399999999995,-145.46791814775426,61.95103713360692,-117.02198877626164,2.0636234966429616,0.9662282142586175,-3.948766288322774,-1.3040361371458795,-1.2799782935935946,-2.4322410235079484,,
3.6234520000000003,-128.0073536577956,59.200831084243234,-112.91730556463642,3.9231214675202786,0.24816080064712276,-5.030692167902493,-1.1896720034772459,-1.3526187982614744,-2.738026478773532,,
3.6329680000000018,-114.32386155101264,57.430110606378264,-116.31353236434342,4.176618100155173,-1.2994240155680532,-3.852754712775744,-0.9212381939564233,-1.1626339695911947,-3.0104289069618577,,
3.651817000000001,-92.30933381713658,61.61678675936357,-132.07827149331033,4.7962945369650285,-1.4760340355174606,0.6247543503668056,-0.08133911857635333,-1.2437765086635613,-3.4699457238215423,,
3.6615059999999993,-83.10989544042559,66.72006157288796,-140.00680716780442,3.484439237253743,-1.0986575693859455,2.6504233219896642,0.13011597486037615,-1.294441039187882,-3.2440764568975937,,
3.6709870000000002,-73.56865782777693,71.54964483959081,-147.79613427620362,3.02040304492653,-0.7178457586706242,3.185314029601341,0.018516641806555476,-1.1835678814902044,-3.3436916872514786,,
3.6994100000000003,-39.78481373366408,72.13920884561281,-175.01065842878774,-3.585450786775281,-6.499057673900336,-1.4629132924303174,-0.8250000686068454,0.3327743149077897,-4.296278049756582,,
3.7089260000000017,-26.71572416686154,69.62651411008123,175.7418420224659,-7.086806950615001,-5.750422259339551,-2.2417328557505543,-0.863691437846468,0.4974353807577531,-4.322902896891454,,
3.7184220000000003,-12.393484907363582,69.20076210663562,167.7485740642244,-8.24532545258308,-2.938795587556329,-0.38986186366778125,-0.9892072142926511,0.22951049693833353,-4.283805898991169,,
3.737687000000001,32.271955242893625,71.79300576250446,171.8133270504146,-6.649716602350018,2.616043463694532,4.784853190408692,-1.6541741042350036,0.054983197511813554,-4.054135555333064,,
3.7471850000000018,60.97387536592798,71.82600910488027,-177.9526346439424,-3.5101949801741097,4.532302507789755,4.170944196541705,-1.7854628534914982,0.04483034595106431,-3.9837716555127836,,
3.756705,89.78208289580415,71.10561393565963,-168.0355467017367,-2.24675433564622,6.066921889737163,3.20005036611543,-1.8265388017931887,-0.12246080548095259,-3.9801428517600166,,
3.7659470000000006,117.90828474409652,70.58786560254316,-159.01838497626076,-0.916533887769399,6.685571619821206,1.3420301802089833,-1.7847569693809318,-0.4595533283286055,-3.9627322363456727,,
3.775425000000002,146.0278492999999,70.69280561541093,-152.16530751339363,0.8634288813332337,6.767340412597187,-1.5833644659657797,-1.6841550573278385,-0.7867872222547873,-3.942534535923504,,
3.785057000000002,176.25563193765814,70.78746395180106,-140.81547105095467,2.7441942528666887,6.446320445527065,-4.481486459538001,-1.6224326227375794,-1.1441487577894016,-3.9061080625923617,,
3.8040839999999996,-122.44888327870697,69.86568837785777,-118.37677895868697,6.829719760403468,1.1547387502695807,-6.759639005184213,-1.2213937202802165,-1.6638504801435847,-3.8066899982238924,,
3.8135080000000023,-92.09780503393654,69.90794649914704,-109.12473695566409,7.950944983049294,-1.1656481246261228,-4.810135225481453,-0.8293704429051262,-1.9051971802102308,-3.8588747567462987,,
3.8230140000000006,-61.12472812061716,70.6333366089811,-97.76808138121875,7.547971943787405,-3.2399506602510804,-0.6561874381086528,-0.346622686250822,-2.054951983779231,-3.5698927940595016,,
3.8327080000000002,-27.660268852390775,70.4249648273016,-81.59180686522106,5.750520970806285,-3.6951751010407814,3.382235766296398,-0.027787618734412017,-2.2119776276383303,-3.0884691643252484,,
3.851866000000001,17.55642951643827,67.67539434331538,-60.6976231444228,0.07637788451748603,-0.6955179304612337,4.53347996660526,0.4734888302255639,-1.1769093445699343,-1.817063505395818,,
3.8613660000000003,29.560479166222407,70.3012188038605,-57.93969511559871,0.3310406798797202,-1.8766815039965847,2.54796651396345,0.8896692938184244,-0.4735783771758172,-1.692040251871501,,
3.870750000000001,39.40685756685594,75.43291152869763,-55.38858756372301,0.42202875919804655,-3.1236425103983607,0.016751692875536982,1.1749961832946751,0.07788838731686398,-1.3743731618928978,,
3.889851,59.08283260421192,86.82500625281561,-42.73441458240764,-0.48370041701354,-0.16840211888749781,-4.249635677025975,0.9263705203633215,0.5480449842880765,-0.5896197857722646,,
3.8993610000000025,-8.816002443818125,89.57177392053282,-113.84449770501018,-0.674538151952608,0.8254932074341294,-4.737161032724764,0.37293002604464587,0.4823218441311305,-0.7386818871305811,,
3.9088720000000023,-36.9548991325942,87.75031402317566,-147.0047938080964,-1.2028803486391522,0.8284355756498235,-3.7974940062642615,-0.1962781344796354,0.3313641364080205,-1.1159608080303696,,
3.927627000000001,12.946895394945697,80.6719850479626,-117.73041663704574,-2.5485494379163516,-3.4930385089651046,0.5542414848334514,-0.9836553268351186,-0.015938612649039344,-2.678999839956145,,
3.9373220000000018,26.6236693297342,75.90417418814263,-117.49384912023008,-3.739837475375376,-4.074978844819229,3.969425126671253,-1.0993815943661434,-0.06910527014207912,-2.9848813526824434,,
3.966032000000002,39.740450600859724,73.23483159048305,-145.33654122263326,-3.0011900204582678,-0.4914407578629259,3.4913017036475558,0.057616212574945626,-0.5089398081024868,-2.9660149538649865,,
3.9755460000000014,44.83567261148872,78.1866592929686,-153.2933085088602,-3.4333827036461404,0.6459955053529962,2.16230851316898,0.29827300011519786,-0.9802406582555904,-2.7829212434322734,,
3.984871000000002,56.63007458667749,84.87682581847996,-153.55814181283225,-3.175930180807606,1.5952111277258685,0.843640301801285,0.2984086264649759,-1.3478239264822536,-2.5973034933463195,,
4.013487000000001,-141.20439481793792,74.94861503396203,-22.576393012928374,-0.00785387715994392,1.321118406334692,-2.0034843587929307,-0.20188293014023814,-1.1194220510140056,-2.198693233050591,,
4.022994000000001,-137.3094403992115,70.79553859858247,-30.11550247016772,0.058838657139510864,1.3004116049801715,-2.3267808623040955,-0.15516107231934792,-0.8499026080546467,-2.474236544295796,,
4.042011000000002,-119.02723147836623,67.47676505186999,-39.90751415284773,0.8351244361715158,2.6206318180095223,-3.4332712942826547,0.584031710718115,-0.6549204568561056,-3.0461814770496924,,
4.051335000000002,-102.1031711198957,67.9770373910539,-39.862624115638155,2.1715884238430494,4.3608422276440555,-4.035503996231541,1.0579092519240298,-0.7360877705959261,-3.3777530488100687,,
4.060782,-80.34435425267036,69.12598563275414,-36.085250400264165,4.540721483122772,5.307003652621145,-3.3917621875458344,1.4017535185320085,-0.7860706937045159,-3.528271822362808,,
4.079976000000002,-27.527703136949743,70.80273479435483,-20.356416225115748,7.093424428959854,3.1874831253086957,1.3390054384752792,1.7054569108569562,-0.648900762514709,-3.5868081299362427,,
4.099135,19.872931393471355,70.36439984863637,-7.621932954932693,4.571219476705996,-0.961157829900909,4.439431803287543,1.4020798506447854,-0.29334668592680363,-3.157715550218963,,
4.11815,53.08191860550314,75.51079329241264,-6.537882824885274,3.394134463536523,-3.121581108694502,2.0852065890626443,0.9680567313210393,0.6584674703880892,-3.01755974803876,,
4.1275189999999995,69.63711445370988,81.46000732300324,-3.3145997944651833,1.9692854545027263,-3.3036971611077965,-0.748641601953943,0.7564852891164162,1.1232265563004136,-2.682727515729601,,
4.137112999999999,124.14504591457985,87.44302784281075,38.205952200967815,0.6174275160278586,-2.710000098108995,-3.002495837144227,0.6489187918720207,1.3257413071915503,-2.5974896165805283,,
4.156136,-101.19299061733345,80.81071734156139,142.0574666185052,-2.7755104561570234,-3.931478187260433,-4.543851942827749,-0.01334538713296242,1.0016967719643342,-3.3569599330651063,,
4.165566000000002,-77.86682333332155,79.98027259437528,145.3169662512609,-4.916170601928228,-5.928267997805176,-2.7304463754072827,-0.53260443555716,0.5903083037166815,-4.055514092725602,,
4.175088000000002,-52.31853997213289,81.61073374552817,151.0053041842486,-6.295709964752061,-5.122154761150074,1.2574910750169774,-0.8633569805711094,0.1515208139723662,-4.0942567657585744,,
4.203787000000002,27.266796733255987,83.25724346957544,-177.70135523796233,-4.01971349046168,0.41723737335116456,4.5259358150662266,-0.089056361458317,-0.35303757735882907,-3.0685024900551534,,
4.213311000000001,-2.0629869069270503,87.61411619134572,140.32089428352575,-3.254940380571858,2.1277558692538845,1.97356072807995,0.17251272551470317,-0.9493466199703999,-2.686656379751205,,
4.231909999999999,-117.55025083065848,76.67204996871324,-2.2005207703514156,-2.277139577822621,3.334581122252313,-1.4934294430777022,0.09411936984994233,-1.496742095891288,-2.6761944953713916,,
4.2415020000000005,-114.73558255957967,69.66412624673252,-11.170317785686223,0.0578831141518806,3.0919928459906263,-3.179669271636657,-0.0011166093387801025,-1.4147160201671278,-2.33349657917738,,
4.251068,-110.21173279678624,64.04738585044089,-17.964255459014822,1.312777978329913,1.987703914533352,-3.590405649527968,0.07559601896359705,-1.1786745164125974,-2.4544507700501796,,
4.260571000000002,-101.43394881411672,61.00116889981935,-22.49163474207782,2.39993208787905,2.9939917714830795,-4.998007446399129,0.5602536187621003,-0.847049584804909,-2.7063296781234825,,
4.270258999999999,-89.59454101070372,60.912206109198934,-25.19709287649858,3.7411950361032815,3.073089354915818,-4.97630810247888,1.0506234515566406,-0.4731142084833564,-2.8075805287697655,,
4.279674,-71.8910651369512,63.42234880580658,-24.001251660668217,4.281567442852411,3.668912047870981,-3.92457737331624,1.7134651990892331,-0.22505006888586931,-3.0363824959148276,,
4.289200000000001,-45.45309896279814,66.5979191027864,-15.16389949829261,5.974981781415753,5.184294137290301,-1.4001652579551505,2.3074436709531883,-0.15000323541769844,-3.1394738879802664,,
4.3083620000000025,14.858995295202721,66.26316456149368,13.32255960522715,4.387654195224166,1.1826555390923386,3.7971488670538007,2.2588916759795756,-0.049906792584472705,-2.6317995144618425,,
4.317874,36.79759275196481,63.57329471770613,20.142271994725366,3.7991397098347397,-0.2214847221882459,4.644976834793121,1.9309783844942843,0.02660411713807365,-2.6164903588936834,,
4.327384000000002,53.65479153904729,63.29253079850811,22.83460679670124,2.799824825711116,-1.2601234984346135,3.872334184368046,1.4236845776893772,0.5005519152937362,-2.480473427995704,,
4.346275000000002,87.58652833777516,72.36558696917473,30.754337442009934,2.7614972219711023,-2.1174447103959464,-0.37731848583522093,0.5647435988041666,1.6093903162122123,-2.329383565436722,,
4.35585,113.89270700932393,78.83239025454691,45.879482625154644,1.528735201055738,-1.7991548694512451,-2.6769128098808204,0.24078629703445298,1.797683192073998,-2.044954944711328,,
4.374872,-145.12472020455573,80.89111391017487,120.85701153848676,-0.6379435089348797,-2.166143562053126,-3.47764390824169,-0.07232253102289324,1.449079515955157,-2.8396337065328754,,
4.384306000000002,-114.88696391955047,79.25523288268927,133.13651783289947,-1.7252048352436757,-5.49395055746606,-2.0992088890729868,-0.3708217515434127,1.0181046524174795,-3.5314693655274767,,
4.393816000000001,-93.24346681952419,79.54377460425387,136.2334030138793,-4.251557748462471,-6.503993419008833,1.073385260504373,-0.6021958947997109,0.523757221216008,-3.721272269930783,,
4.403522000000002,-83.15571971489331,79.92236155100187,129.1220876629368,-5.980422071088877,-3.4353878584222395,5.836159711495042,-0.3012940938731198,0.21280982076724275,-3.5017147420656864,,
4.412850000000002,-94.1395385649283,71.28887993903224,106.18380459735046,-6.997097070602011,-1.9151215228902434,1.8996962032079667,1.780519973913696,0.3211078201673084,-2.5237378753714528,,
4.422351000000003,-100.2800060241142,61.94976398728993,90.71704639907591,-3.1788842867457907,1.109752237328208,-1.956266402931292,1.9220139800898917,-0.20252864254014655,-2.0335888490310463,,
4.431863,-105.5779777175187,57.784069590565124,78.07375087815946,-1.9364433844085245,3.0792877285145157,-2.980358529020029,0.7803242832516473,-0.6088235082175052,-1.7009404524202376,,
4.441367,-111.68259091544961,59.71602888533127,64.34915163447971,0.6082908345003404,2.5264962346437687,-2.435901713584645,-0.567840589245831,-0.4793111980445562,-1.829645197302788,,
4.460578000000002,-136.52774105772156,72.78884854812898,21.290918860021087,-0.5441434437314815,-1.1533297987518998,-0.14292916582936607,-1.7019640918076768,0.48609950663112045,-2.180989025393737,,
4.470097000000003,-160.21200751271073,77.10673009504926,-11.632846646521987,-0.022058638851335056,-0.8583311083322008,1.0071159213109466,-1.2928928022276411,0.7400279736543405,-2.0294889143785717,,
4.489114000000001,179.85602769373375,79.15181176168917,-54.160574730417345,-1.5110272648063825,0.472204537425052,0.4194050387499425,0.0852901217041354,0.11554329934536726,-2.3815369251929015,,
4.498433000000002,-152.96829061956296,80.46350183079542,-38.81131530102651,-1.1157726282037266,1.1285172588544168,-1.1421738118392946,0.8460337133888269,-0.5128870981220224,-2.392925567707333,,
4.508020000000002,-107.6901994460348,77.48400040733338,-6.992242121306706,-0.9732588208657743,2.8689377126174325,-3.559932935005095,1.3529239305747456,-1.160030926890342,-2.6810436511569473,,
4.526971,-67.17713465375,62.555180656461474,2.975372614056625,2.834180426000819,5.297935746397771,-3.376413826484833,1.2991001277072778,-1.386415037996724,-3.0846595780901853,,
4.536476,-53.1996465697696,58.02043005090774,-1.2273350137648262,3.990775587611918,5.156629637042138,-1.531165030669371,1.409340515936189,-0.8746837183392201,-3.4196058028511067,,
4.565141000000001,-5.795405642872145,63.34250877304881,-8.120610482941892,3.1017548875401557,0.44397152733169226,2.996980887940836,1.7915090354890963,0.5177219344555638,-2.9254761165962693,,
4.574657000000002,15.951720818247539,67.9757571081551,-2.7294719590560046,2.5882981915920533,-0.11843461399442902,3.20027427419012,1.8693325693761857,0.7409602994890976,-2.8915956590705387,,
4.584158000000002,40.27385223394326,71.79329693129333,6.0529257221115005,2.186156721895226,-1.0286339305536538,2.270305513040141,1.6457200017047466,0.7978407916186117,-2.8189120689182543,,
4.603049000000002,89.44318472515856,76.92310847315557,20.846333079844335,2.520494409111837,-2.9252112695791097,-0.23074766824332896,0.9952349977842199,0.8174931761100462,-3.572299562959359,,
4.612558,111.64941697370254,79.61809692888511,23.092235752108227,2.139225596772208,-5.987014629379959,-1.2145599409075218,0.6353153625531939,0.8338361433373164,-3.986279883898129,,
4.622069,132.99663890565373,82.50884191498537,23.76741026344862,-0.9691512038278225,-7.924677007766171,-1.5924784458596792,0.37852275850045014,0.7905200466133726,-4.179462670450888,,
4.631589000000002,160.370129620475,84.19271666318123,29.8220280774339,-3.54202892673602,-7.64080889860791,-0.11168957279204648,0.41371445844827165,0.5808943014652997,-4.31445573918364,,
4.641090000000002,-171.40972302201027,83.8475459346111,37.19694558632318,-5.990453183721921,-5.647585870690698,2.058425776416975,0.5246666538407704,0.2694595347555196,-4.239155381378282,,
4.650589,-150.53055606002593,82.51493449264396,38.40773770266724,-6.194227132925814,-2.671970189437639,2.5852253799121274,0.5533029649905302,0.09796713869334528,-4.007310578201574,,
4.6601060000000025,-136.36632664796562,79.72102871756078,33.010633097664524,-6.432706701388611,-1.1237904943201997,1.860031129132718,0.6831755592486772,-0.1937615487887036,-3.989431942295251,,
4.669612000000001,-126.61960771259957,75.07910164826387,24.346975946658326,-6.563599460235855,1.3835443472449562,0.4197650521857317,0.8246839985194545,-0.6066952792138839,-3.7641757430662537,,
4.688635000000001,-105.43509918931454,64.01889880415241,9.64805230243745,-2.865595454221956,4.823008068320621,-3.461574959384109,1.1165872817689753,-0.8668397438709122,-3.6597654903789016,,
4.717168000000001,-66.94772318824667,56.119023846261314,-6.187204018344669,3.7972742329844227,4.638215265885832,-3.9702136265968377,1.8235023637554508,-0.20714993047834804,-3.2731917550609895,,
4.726686000000001,-44.58734332056838,57.50493118917398,-3.2038870546805165,5.116846010387057,6.122233853769614,-1.8065419777989418,2.461757958081931,0.0784276750542422,-3.2083169758554013,,
4.736160000000002,-18.550247726228356,57.802373461986456,5.331361599922441,5.909598856118777,4.427545054342367,0.9448035682794239,2.776890935554059,0.10986674478187383,-2.7036856136629015,,
4.745838000000003,7.763842663520736,55.353955638791575,15.11178494834844,5.150766713055157,2.539032548270053,3.0271835816955783,2.929026360483571,0.040891761524816564,-2.4501737705567668,,
4.75535,29.328573869090135,50.90256011981661,21.427834848843933,4.293456280115757,0.42694859422775405,4.668973730244202,2.7306117091106334,-0.02389333585452699,-2.196311632775637,,
4.764860000000002,44.81788488437646,46.815525696250745,23.754573229465688,2.5966922379872304,-1.4485193066921611,3.930972828738023,2.1952578600780956,0.03304341052953628,-1.871582496212508,,
4.774412999999999,58.08366378442718,45.48873926338255,24.83078157305702,1.1125257821029768,-1.8017178460153027,2.6474685412002223,1.7854387784443682,0.5158029306385767,-1.7005262944049677,,
4.7932520000000025,83.8842641451693,51.87256862084844,29.10878062785482,2.4039329017531528,-2.274090524014925,-0.1559177925866365,1.0198416009324816,1.5417314783649891,-1.3734347996614271,,
4.8028520000000015,95.70228846087142,57.7461245133514,33.75857817868712,1.626376836105905,-1.2196162765912553,-2.277272328113851,0.5523923414911349,1.7098343262443354,-1.0055080452674312,,
4.8218640000000015,121.71927558805521,69.63610063482548,44.707850722871804,-0.20987635267269683,0.46645390702421574,-2.8657875954863736,0.012681416382622539,1.5655660167081376,-1.3398214290729633,,
4.831375000000001,133.8206833742168,75.34591629749916,46.18228765031862,-0.1426294932925828,-1.6268595616866135,-2.419021608612092,-0.2939393186460414,1.3194051322447509,-1.9137312067510697,,
4.840813000000001,143.19957694206065,80.63463797759701,43.10235371880243,-1.0205219431237624,-3.6323562849561335,-0.7540076766454321,-0.46126795734735165,1.0288176820879882,-2.376373555604377,,
4.860015000000001,160.20934535907756,88.58179988010644,32.05931618561319,-3.3446344312148932,-4.419507583531618,5.728775545565239,-0.20648453333561265,0.653003429731762,-2.7896667937701207,,
4.869521000000002,-105.2880661684752,85.30602743929546,114.32765935617478,-2.564992264855976,-2.529577834472442,2.573240251837035,0.6878668104791207,0.7293673665665897,-2.435219638861479,,
4.879034000000001,-107.01545113245028,79.51258341580706,101.27283827939594,-2.4076548019744273,-1.2415015306974662,0.751607567781598,1.1205628174918485,0.31186925374848606,-2.2695916051949414,,
4.897881000000002,-113.34869615785597,70.89731608237493,74.09394107989795,-2.198067185938901,0.42842420677925747,-0.5990829501900637,0.6701398468603214,-0.25690581871500406,-2.0905038989279277,,
4.9073910000000005,-116.75272990150137,68.96907661552721,60.439521871394184,-1.2787457322588374,0.5197053652122061,-0.7344049595388427,0.26685155173354314,-0.3646443021661119,-2.1479090262078393,,
4.935987000000001,-121.20696719923284,68.01203839564589,25.3518259671844,0.05352374337775684,0.20674820017066234,-1.2841822606111557,0.06117725952482471,0.023606131593379265,-2.1427675213863995,,
4.945520000000002,-116.87412598954174,67.55176725094609,18.11197612480539,-0.3500951976870056,0.5055442396670377,-1.8664143582490202,0.3392654213092122,0.03670024587072603,-2.3028872612356093,,
4.9550149999999995,-108.31287694069174,66.94953781597413,14.758729813814007,0.21131306719649004,1.0260623496226349,-2.6874640161296,0.6702518923047442,0.07368712212312636,-2.303641009450243,,
4.974031,-75.95931882108043,65.64189873721341,19.443718991202495,0.6376515673793942,3.6597533707658108,-4.221709684434635,1.477145847100408,0.31815591922834957,-2.6955543526790553,,
4.983458000000002,-55.08876041195181,64.80902906351876,24.555461738063293,1.3710254417768826,5.141466128463926,-3.19018343630472,1.6805171509769739,0.506776013022219,-2.837340896460818,,
5.012169,16.13937245562729,63.78722698843151,44.304658230317365,2.8352975127449516,2.8284428230750094,4.301346822274988,1.6217535352844015,1.3674021022676723,-2.910787114384089,,
5.0216410000000025,38.02513340147046,63.23187487085079,50.1542623948798,2.6403953280879944,0.717675550283776,4.733201991160353,1.4044067137386642,1.3568438820060602,-2.7535399543015586,,
5.031155999999999,58.60526168914028,63.70617246012989,54.782631604253986,2.822124144890018,-0.04710139330402943,3.847896381400936,1.0447772926039778,1.5139554269704134,-2.761920148916688,,
5.050031000000001,103.02390216597024,69.69508312930716,68.72462143534362,2.270718615839494,-0.9850525392231401,0.07795143096720433,0.1048030835581621,1.8812681687106683,-2.6064852188946253,,
5.059502999999999,131.34343235015527,73.46998231145395,81.26757223916772,1.8628966023947127,-0.9066915472166747,-1.8387000182753677,-0.24969747938712783,1.909630831007213,-2.8751387820952363,,
5.069098,166.78229868171286,76.04785678620082,98.6464727774528,2.292016414648278,-2.6553252214901244,-3.196029072937577,-0.49264277720984107,1.8446893425301303,-3.3748620041068964,,
5.088082,-125.68066474439193,76.90590478153517,123.81532819407765,-0.7901691556045557,-8.220646950106634,-1.428455348868649,-0.6772145727212479,1.1850267552777203,-4.162720487084691,,
5.097545,-103.1896585010941,77.34344229804377,124.6283771791792,-3.7000698489168666,-7.3347203158668135,3.3944384029087287,-0.6355444743280646,0.7806938054915735,-4.227101997201014,,
5.1072440000000014,-93.42046088368086,74.08855207014915,115.38703992899366,-5.19885394834776,-3.0753791648554727,4.537860900077028,0.32268417735971616,0.7456202702380726,-3.7453455160768128,,
5.126082,-97.23268688328854,65.75483065249746,76.96600794305344,-5.226748974534987,0.24001933748685292,-1.2511021115935939,0.7037214384776496,-0.2991382471529626,-3.447845335271188,,
5.135592000000003,-100.57129404204706,63.653517588542485,58.51884737812329,-3.189492901606206,2.0147680334949887,-1.6925086603735477,0.2819066139318325,-0.4248424337176512,-3.0884889372342186,,
5.145094,-100.3179740553569,63.56171125317118,43.130114031257655,-0.8655377696388746,1.4326073310674907,-1.8446108945956798,0.028596794965949895,0.00593168119221774,-3.1265396250412283,,
5.164149999999999,-87.08171374460842,67.5593122232087,22.30662944383147,-1.3236225763440044,2.7298388940646823,-2.6092363764157955,0.4358453354147747,0.7634914099058944,-3.3286923889114903,,
5.173673000000001,-70.78198798787724,70.08956499662983,20.765356527572596,-0.5751123708216463,4.333071145918512,-3.137709650805139,0.9105454763976749,0.9036102686412286,-3.4042126867577926,,
5.183167000000001,-46.77912278749484,71.71235500291618,26.117438226359404,0.8828524893981369,6.0706975557481515,-2.858178251116442,1.3102032376316894,0.9193118376624462,-3.514009940845951,,
5.192686000000002,-17.027883561253297,70.91334235761708,36.859888389781005,3.009749867424047,6.667630522931305,-1.6776651452267461,1.6976112396630456,0.8602241525315624,-3.5240960086028856,,
5.202211999999999,11.154113328912256,67.46426352001427,45.85278895033266,5.056927792680914,5.9677368687117545,0.5178072675079921,1.941695330029678,0.8145676943470563,-3.4997240951817172,,
5.211857000000002,33.947312672094824,63.0927007961746,49.92446097917984,5.727145783553098,3.5012101153944624,2.9597166380014652,1.9171504308626421,0.8353733996419082,-3.3334445303738125,,
5.221363,51.52321449968164,59.42976255581383,50.20814680417049,4.5462086452997195,0.3968428938696769,4.2028254022116505,1.6440489679943315,0.8304609848713375,-3.0294014196316956,,
5.240382000000004,80.753653604331,59.108043786675246,47.75538755548028,3.005707945278606,-1.947228206859047,2.5331093674887053,0.8174082285547127,1.304667987149979,-2.6214090008067754,,
5.249929000000002,98.79052051651333,63.078968449981176,51.50252692308163,2.454053748491064,-2.2461392178443496,1.0717422840880542,0.5326699602699861,1.8374509874543332,-2.373487494988056,,
5.259266000000004,121.85898311584901,68.19830543548343,60.6508046529321,2.298522952115138,-2.0658506593409363,-0.9556166407710209,0.23042034408906575,2.1365197890364125,-2.310099701421628,,
5.278354999999998,-171.7559059995177,74.07758280811224,98.72066892423923,-0.04962445546648796,-3.0888557434494723,-3.7498000847275526,-0.20363111377503393,2.067698234287874,-2.5422028436222277,,
5.287798000000002,-138.25325530577538,73.30780729646145,114.55832284477522,-1.1989788461561661,-4.562871493927002,-2.929053681214614,-0.38582128793554893,1.8303820175751773,-3.197620251102478,,
5.316476999999999,-95.42532881529817,59.90337257107021,111.08393768452221,-1.9803964488405603,2.6246278784313444,1.902581270290044,2.101769595393257,0.9155910093279997,-1.9184879011135625,,
5.325844000000004,-95.29734487394741,52.1436982548328,99.43056817745403,-4.000618547287829,1.2806733332722708,-2.241665989779092,1.4978254546731447,0.4230172226492336,-2.344563172147323,,
5.354365000000001,-120.76101099595168,65.40034893310238,49.28430724091291,0.7916808653417123,-1.4131740356233702,-1.2985144807449445,-1.9864074884286067,0.11285793346073285,-2.6997127301752815,,
5.363874000000003,-140.07406413400503,72.425334647368,19.058075108273208,-1.5552779030265769,-1.5025957646777544,-0.5629309247029609,-1.9312204142014353,0.3638594285921673,-2.5012752266285876,,
5.382908999999998,-170.1191438635366,77.1547962176832,-33.04084722827583,-1.3116527890126595,-0.537212487248488,-0.22042535875288574,-0.12940823097789905,0.47468293879462164,-2.5088981153526686,,
5.392488,-149.2571503852482,78.92765268430743,-22.705415586531107,-1.7285917446713994,1.0017669947387409,-2.3327660956267455,0.9256073070513428,-0.09267056638141727,-2.0481324670678447,,
5.4019990000000035,-111.25524004216636,74.87298586950453,6.951694901818701,0.25338191009232014,1.1330985017472697,-3.438447073577363,1.5771720816746737,-0.9899818330126106,-1.5478481940653102,,
5.421015000000004,-73.1950430778386,53.67358829798126,23.03251328930528,1.8593080007840022,4.092724771572521,-4.346653901471836,2.1951949889563798,-1.473901108285835,-2.1333792988621227,,
5.4304520000000025,-60.91089646532257,45.68179530678785,20.85891974271782,2.560623801502086,4.696797149000438,-2.0879784417025653,2.078338371168887,-0.8750130992580731,-2.4076851565664947,,
5.4398589999999984,-48.23308260113823,42.479986435634686,16.664829575624672,2.3351056234601333,4.4690110455745184,0.5262682422353416,1.9346029231165423,-0.012758257529020144,-2.6656574337743146,,
5.459127000000002,-21.629039668795286,50.0142379819941,12.016339182357008,1.7508368100139218,0.9822538902697971,3.283033144118372,1.57837021113921,1.5187574683851697,-2.158781826230981,,
5.478138000000001,19.6215678960786,63.40054718027587,28.441723136182954,1.6689551173915071,0.38368830706407003,2.7426508798038216,1.6574955754049379,2.0101456713070633,-1.7867663223975452,,
5.497168000000002,71.1515090682927,68.59345994932502,56.309441869988056,0.7011824325532853,0.20308480819122857,0.4203516167989022,0.9789088070858704,1.621503545580281,-2.0826471887151237,,
5.506678000000001,90.87038389894289,69.6558859234672,63.20512900270328,0.2577962496082523,0.3149448074979449,-0.5396175674823633,0.5252222527086425,1.3179836766221744,-2.3100737252108265,,
5.516026000000004,105.90534224736918,71.31491461955822,64.09214319073006,0.7479283897014699,-0.10489590566048818,-0.9499902669695786,0.15035360894874888,1.0473802478403342,-2.659949496519219,,
5.525508000000002,117.14209374790127,73.84331432197575,59.204731319229246,1.782236944317028,-1.7532129744245417,-0.7233424241199269,-0.1244120205571389,0.8338378157358207,-3.1248576616108585,,
5.535056000000004,125.23067202255253,76.81705512855616,49.40993478785337,2.0974767104843695,-4.6449724945267015,0.2589431212567403,-0.24421620491106072,0.6821492873185765,-3.5272939197421302,,
5.5447479999999985,134.36298923754438,79.65645504181145,41.30546214661249,-0.10092257543277494,-7.75627802266584,4.121287817116802,-0.14310825940848476,0.6655757952307121,-3.447942220390337,,
5.554262999999999,172.74202658645905,81.34085360593876,66.5834760986659,-4.203809469713203,-5.95349949780053,5.218010629720999,0.47618115762862656,1.196755256898896,-2.5228668106278342,,
5.573112999999999,-137.89770327316893,62.90984628787997,94.6504203472277,-2.086374433081969,-3.1240450941865223,-2.8468652591304413,1.8455630299576786,1.062951984545675,-1.9354381935117955,,
5.582692999999999,-141.16837064342621,56.879693194226334,87.44886169127925,-2.028481914968479,2.6694681497647035,-5.369520307199794,1.2126911993708192,-0.3077259085746918,-0.8498549391355691,,
5.592131000000002,-150.99816119075857,52.77836307384275,71.53313641478904,1.6941504013202437,4.705826058549711,-2.2235769904412948,0.600414355580473,-1.2633755909561173,-1.6063950815597166,,
5.611229999999999,-168.43859685854213,52.95807285803673,32.29684663246983,2.374647578634174,-0.04550277154827542,-2.4292220572302745,-0.9999797416960433,-0.6960523919651812,-2.563394420881084,,
5.620842000000003,-176.71077695523533,52.01250670681765,13.900608698353789,3.508204208695847,-0.10208384876669958,1.1715678790723134,-0.8524719415338357,-0.5736486938112628,-2.4571382419431056,,
5.639654,-175.0753199969349,54.46713117271779,-3.6883970195752993,0.43363475573621,-0.7681127292796307,-0.7117443581111808,0.4233458250384411,0.49679492128170555,-1.5028626234230216,,
5.649180999999999,-164.18915546747306,55.82485763800447,0.6691494944329203,1.2617409818816048,-0.22799633387984708,-1.0461955507789218,1.2513869306524852,0.23793729095571609,-0.917050026763563,,
5.658782000000002,-146.25122370749463,54.38501341139604,11.38063706117909,0.8411016356504121,-0.46956295346913973,-2.269672001012023,2.0679825589189544,-0.06853016749789594,-0.8069701442719371,,
5.677799999999998,-115.83244795099522,45.42869387594835,29.72627405326563,1.7837396455313492,2.29954329660129,-3.2904507801302385,2.003227427736179,-0.13759505669559316,-0.5475998859668871,,
5.687324000000004,-105.45494769381672,41.8246484022737,32.52202165499735,1.2459399402254785,2.079175390554609,-2.9193873788037887,1.658976254110226,0.16141835335986326,-0.8750257850979669,,
5.696762,-96.3961138168485,41.41007966579708,35.46027266206336,1.5327229925783483,1.4916636407907728,-1.769402018249627,1.170150115353857,0.6891402253352454,-0.6169909524241178,,
5.715964,-71.61912976055487,48.13904567705426,49.03329139279556,-3.149164516721953,1.2231456204221338,1.1197700725114608,0.7702566545629248,1.9224784649722368,-0.3412549474944412,,
5.725462,-61.259317132961236,51.015492359237896,58.75434006744768,-4.486396072884647,-1.1914975455093824,5.694691074087101,0.32837274066415156,1.424116048289904,0.36447776599371584,,
5.734962000000003,-59.188212132846765,51.32534696880593,61.65016098222833,-0.7153221578196647,-3.9371202252659594,4.52603552708033,0.07537328756143195,0.25644195820378385,0.2567345483886891,,
5.744464000000001,-56.674761871287785,53.02852625915885,63.3734456567507,-2.1047951943676035,0.34831740669514605,1.9744662710353,-0.16001204032994232,0.43111761762763123,-0.05253104426094005,,
5.763455,-59.70663949985762,62.849374187415144,60.804577658655845,-1.4457080409763305,-0.6532966947834401,1.8514371753974947,-0.942850737129106,0.28308279279908377,-0.06960023666749579,,
5.773004,-59.685503565502415,65.03048951735926,61.73237334038399,-1.0617228501633056,-0.4957961822204609,0.5553512727087053,-0.3820529917260421,0.21155901785480474,0.18195911085052704,,
5.792037999999998,-68.96163761584744,65.06104684615528,53.2020550702671,-0.8750787641063866,-1.0660394576453407,0.5174073175215279,-0.17948073356138722,-0.5310552564082206,-0.12651716705655883,,
5.801535000000001,-73.36054103244992,61.62658249082259,48.640525653237646,-1.0570466079668852,-0.7604076589287136,0.08874313626141132,0.284525241909439,-0.7398479217577485,-0.13008979809999294,,
5.810879999999997,-77.24378582588777,56.53365504269911,44.37539871512181,-0.6849386515976561,0.02128271215950018,-0.6937131983095912,0.4657533931965958,-0.9906980148854152,-0.21781383137655874,,
5.839390000000002,-85.1113179713168,40.40947550699687,31.003119225561132,1.3330625088298602,1.0574254530627167,-1.5347318408173964,0.41348837194268584,-0.9010620271400053,-0.5664255621494897,,
5.848917999999998,-85.3161715325358,36.774159986025666,27.3070980114966,2.1105113862773184,0.6504635199760133,-1.5352000695170103,0.3276877069338283,-0.6508516276355992,-0.7505604005787648,,
5.867935000000003,-79.42540875826481,32.640940427707584,22.303044568517997,2.672386120978709,0.6846548770536038,-2.131218389126251,0.7594288468953827,-0.035369479057827405,-0.8346679726765164,,
5.8774370000000005,-73.70860523709679,31.464576165292236,21.290516222443944,2.605513950345552,0.9985517083867497,-2.2378087790768686,0.9882740855711521,0.14155632907792992,-0.8059907176079827,,
5.886951000000003,-66.86459421463643,30.294081759236942,21.382151287127826,2.495574632576131,1.6080704707706723,-2.1285061517969353,1.1806193374257345,0.20986933179651046,-0.684959257525607,,
5.915492,-46.26170129928909,27.582627721542153,22.721437418637247,1.551178918968989,1.488725506647227,-0.38384762810377726,1.0753863798508576,0.4222656155650737,-0.6013642867484958,,
5.9251429999999985,-38.988668291708805,28.74804228313022,22.92359025917439,0.3522744688892215,0.1623954114832515,0.3033561603255265,1.0928733517562805,0.7127186890526842,-0.6469261864780924,,
5.934640000000002,-29.642643297417003,30.441470252972923,24.870500204611268,-0.6775989584081811,0.22168547603210614,1.2972850190202512,1.350398327380205,0.9682857875459909,-0.535041982747281,,
5.9441460000000035,-19.98795718588683,32.90843221861074,28.437838726316574,-1.3410164934961817,-0.4791697382013207,2.0591256831254157,1.2489572950833583,1.178096073174102,-0.302203392577853,,
5.953665000000001,-10.2111414541573,36.526957446606744,33.3435922085873,-2.3527013615720613,-1.9462288799555325,1.906132921247586,1.0095373516129988,1.4458486610537191,-0.13475562279602804,,
5.963177999999999,0.5553777710923649,40.224241404128286,39.4582786434125,-2.9509372515491252,-2.271969622527272,2.6515439137774144,0.9219134724759132,1.596206401893772,-0.11685468606109022,,
5.982204000000003,20.33732010682859,45.95251324640468,50.63262783860949,-2.008301457795494,-2.1533126564361447,2.785393908515659,0.46980450717407246,1.3478865880133137,-0.30346447182484976,,
5.991709,28.265457213856088,48.707506269472425,53.489355842094994,-0.9459149573293193,-1.441523857075143,2.582100982243604,0.2271206628741727,1.1867994572520846,-0.5958083693456678,,
6.001226000000003,33.26966906660222,50.985884501309506,53.21100326805048,-0.3757533132183406,-0.5869554709912236,1.1695448605592702,0.019930168458621094,0.7905371487567886,-0.8215577686316513,,
6.020132000000004,32.721543083130214,52.635185008932474,43.72939518974595,0.6023948898767427,0.4495262705231634,-1.9831529894004325,-0.1698746781371715,-0.11656493871065522,-0.9072532942614897,,
6.029648999999999,29.920135364196916,51.14148657213545,37.417011555556954,1.165107836825709,0.30713193964379604,-2.2022252308728327,-0.06847690085206232,-0.4523545561235434,-0.822357100288533,,
6.039082999999998,27.65791164405665,47.72991745755429,32.312221084288225,1.749596260810002,-0.032648705827179304,-1.631426591658951,0.14872646890977345,-0.7288600980605258,-0.6775751044095636,,
6.058281999999998,26.200260667245153,37.83318179917924,28.78961079816726,1.4802751729767667,-0.4597998267660569,-0.006900688218396046,0.44701991775037486,-0.927510268138302,-0.08070774947637865,,
6.067785000000001,25.85875435662255,33.05915748476431,29.59266430272675,0.9476188102595722,-0.25361606849475543,0.002451659227587098,0.4175503298163725,-0.8616359114588281,0.20035873774029245,,
6.077303999999998,25.345214246533423,29.142800320558408,31.10549893138204,0.9450634248778783,0.243284425450292,-0.2637853849009756,0.32021145446024624,-0.7211885875247349,0.3558996735375376,,
6.0866240000000005,24.41940443894359,26.41695296114583,32.77298649298647,1.5525354755108072,0.772328533143606,-0.6496281346545884,0.14953536849954582,-0.5499266657900433,0.4201941357638828,,
6.096170999999998,23.476618252218216,24.982041216689275,34.20051618901841,2.4121313150290176,1.1588808438644624,-0.7318166672387276,0.016648240206950198,-0.3334656974318639,0.3676554692349294,,
6.105674999999998,22.921558814757212,24.742537374744682,35.21484041000045,2.9033937882605962,1.5460479320667018,-0.5298713859462552,-0.05558935140781714,-0.0968366832310306,0.2498082865336488,,
6.1152039999999985,22.214822978740944,24.823781665150896,35.13860719792281,2.9647338445076024,1.6666609690771252,-0.8521996904711265,-0.11449247161264012,-0.060501569933756445,0.08694341552088888,,
6.134222000000001,21.791297095126954,26.43859897138758,33.5507664575199,2.1172649323683568,1.0887348817215843,-0.5498419276202804,-0.1361423572327559,0.21887541989077963,-0.12344980871152245,,
6.143748000000002,22.237128491710596,28.32348499179655,32.983537341719774,0.8581601106285642,0.41200546198769905,-0.5653355510176513,-0.13999250347397763,0.3593136107491998,-0.10711585572252551,,
6.153424000000001,23.216105282535064,30.916679532771646,32.92413415525454,-0.022865256068614746,-0.16495304870320965,-0.2424054488509065,-0.1380815948556034,0.5287084743009788,-0.0502792413115296,,
6.162934999999997,24.81397490294731,34.64672708706148,33.71783959905955,-0.9719476562906697,-0.7077642030123099,-0.006614148807347525,-0.18314230669934156,0.7723288642619905,0.053580335454374746,,
6.172234000000003,26.98048425297666,39.05142073961678,35.62696736127386,-1.9451405054931707,-1.2313984228022947,0.32258993296411054,-0.21609459172560241,0.9227048620460928,0.12182092614430734,,
6.191426,32.08894873964484,46.87065493746119,39.41780949116,-2.8778270816198077,-1.8074626509793585,1.1866167923875885,-0.15596649257102,0.8034498249826778,-0.036959116099660794,,
6.20093,34.32308956676172,50.2214646832299,40.481684112333504,-2.8319498871264863,-1.9882925316619615,1.8465952570735145,-0.2036857513319797,0.7044053093801995,-0.12237162620018047,,
6.219973000000003,33.815642374937575,53.991978633732934,36.52453368871908,-1.4733662023310532,-1.5179807498964082,2.224869620374618,-0.28510071938753406,0.07226796743933264,-0.4216591353614093,,
6.229467,30.653189243806604,54.25622704523063,32.25194329443471,-0.9736463743229059,-1.1704942047731461,0.9309862487400515,-0.3360649806500047,-0.1659161987176982,-0.34231477772379826,,
6.248297000000001,25.449870134134425,52.19954353224553,26.96276197053891,-0.10939919488501554,-0.6770049922177451,-0.7829191874188876,-0.06924440544944015,-0.42596576675478953,-0.04104588784739355,,
6.257822000000004,24.38426071951155,48.913572001932785,26.69314045229056,1.1377547737748412,-0.18656871015044094,-1.0346015901131462,0.17594249480587976,-0.6482645705700371,0.11081905704835013,,
6.267330000000001,24.236954998151976,45.075300704659405,28.19854803625621,1.4089878069811268,0.2153147768024695,-0.9768038140861898,0.33636032601073723,-0.6912945241916642,0.322870008100355,,
6.276850000000003,24.117477813229364,40.823601438651416,30.402817029567288,1.2714700678170743,0.47814140068078514,-0.9124953017333061,0.401356562149221,-0.7509826544858239,0.45743479607382287,,
6.286351000000003,23.61225178091341,36.074453579987775,32.21748136494264,1.3256358678695268,0.7179389996724987,-1.0165956780103607,0.42645322482124914,-0.8536122585754978,0.42603777627490275,,
6.295859999999998,22.986996833102058,31.514894049120162,33.383478120552994,1.5574156296389001,1.1063687386523906,-0.8751078969741299,0.40707005154758114,-0.8237428303833435,0.30297886299703986,,
6.324414000000004,21.291364152086818,22.168815247851025,32.85761639612994,2.9531657762214434,1.4348051266827309,-0.22800257470889154,0.2580309743736014,-0.38754982825923656,-0.13308493219261555,,
6.333928999999998,21.844831578035716,21.379092900906976,32.49835569530468,3.0615767063243995,1.2638397145949631,-0.14471051787045797,0.1719903296178511,-0.07752669933117184,-0.11303486100544435,,
6.343446,23.183509301704913,22.036072846133166,32.77130558308407,2.6057136841649884,0.9232930826482431,-0.19289556354172502,0.13877215060973494,0.24505956631225384,-0.04448920863058248,,
6.3529589999999985,25.167893734030024,23.673214553547602,33.55971636555624,2.1297768111281505,0.6394270298735265,-0.14782241598745524,0.1280112877242797,0.4744281140812707,0.04351580568392276,,
6.372194999999998,30.32862304425608,30.184407855198728,37.61773025909729,0.56682389454752,-0.04486191187320609,-0.3571891611099274,-0.04875726485294012,0.9074287084674187,0.2801088983753375,,
6.381675000000001,33.367236817274446,34.77528967466693,40.38109770496155,0.03535671803746931,-0.23900159323057732,-0.24818482225054742,-0.17598896334455835,1.0378104865075954,0.30057402856411947,,
6.410032000000001,44.46432658275871,53.89332808412976,48.80457794314645,-2.1286748444488373,-0.649765481962162,-0.15976867458079155,-0.6881759943521448,1.364792747971867,-0.026128780400533222,,
6.419487000000004,48.77195694279147,61.066134726269595,51.07650084447202,-2.6597606839248407,-0.9566346521173598,0.4564239180037871,-0.7999669187506135,1.2787635649549354,-0.2734848489677115,,
6.429183000000002,51.57822033955229,67.4266507094062,50.64887782029081,-2.529201399596111,-0.91824714745103,1.5425385898010138,-0.8334447129928181,0.993147710195041,-0.5918452213600955,,
6.457712000000001,29.575264992436153,75.26490267019628,19.23335545226108,-2.1633560507617333,-1.4853859452168232,1.2993520221318606,-0.44650327946186086,-0.20823205707088663,-0.6787243084302312,,
6.467222,28.242562432586997,72.89236878726152,14.567459659513341,-0.9687650731734805,-1.394540102981798,0.9008569914415072,0.068086409860209,-0.4758642609283659,-0.6774475279763154,,
6.476734,33.90075174154954,69.28894795647946,18.154068532205724,-0.40206918877651815,-1.1249075378593123,0.35729934807772956,0.5552042318975174,-0.5881059918442909,-0.3540954907850931,,
6.495775999999999,47.96772922551724,58.740770302976905,30.778279149821397,-0.10546554178663962,-0.3251403976157614,-0.15600265693771442,1.0810242023249432,-0.7445081884429525,0.021747530375817847,,
6.505291,51.417920468794634,52.9045272462033,34.238522610459505,0.5259573738861781,-0.1703035859069818,-0.13216651868481155,0.9551006883241111,-0.7764279859149926,0.12040631156641377,,
6.514789,52.12162269256892,48.10285963306138,35.61942432694569,0.4649230498411858,-0.1609266739424028,-0.4444240948696667,0.62393808213672,-0.7368774298924519,0.16756897798409495,,
6.533633999999999,47.397422190950934,42.393550064008174,32.16055456608482,1.4225710954560282,0.25099090628583604,-0.9115256751407417,-0.16142466043060175,-0.6462176076775544,-0.06269303951979505,,
6.543154000000001,42.59044325384883,40.63987707098065,28.357098352148682,1.5344718630346028,0.49799184728150525,-1.7140484542821055,-0.4455959713351262,-0.6661719447388585,-0.12323990625910017,,
6.562176000000001,34.66166317857671,35.755236592719264,21.283684590183586,3.0855042745501087,0.6227398265460791,-1.2710273612931577,-0.2815018415662963,-0.7340075218027855,-0.2137743698637072,,
6.5717010000000045,31.811081038573285,32.316755449089314,20.09339637801839,3.486750402811788,0.45382240854546707,-0.8665135567503527,-0.19793808154593304,-0.8113585960831636,0.04130993839376133,,
6.581211000000003,30.058147980267684,28.799897488380267,20.94209504351184,3.1974379421887735,0.31186863256683506,-0.6990914457153738,-0.03525117202351938,-0.7654299426454115,0.31638136441526066,,
6.600410000000004,29.23315795247965,24.220878689549224,26.800553766031953,2.2117815157758196,0.5660432426979791,0.621661988747719,0.053718666370898005,-0.31550588503639926,0.7152509962682787,,
6.609932999999998,29.076586722451392,25.10954515448209,30.564205464451113,0.9298646884668086,0.4472005646170284,-0.01720170310215102,-0.11032788089532077,0.142516045685454,0.7804808921150044,,
6.619430999999999,29.824974890629694,28.073589764203977,33.5428434081058,-0.05149999458861464,0.2649300516891078,0.35693674040280154,-0.2004845162406933,0.5744725186816277,0.565532462748759,,
6.628943,30.199657493757933,32.354661606252094,34.81982148264361,-0.3775674433134456,0.2548709699311793,0.39686214598096065,-0.4260948805642766,0.7465795206951394,0.2741001301767864,,
6.638472,30.104390843824245,38.18632108483785,34.956630684098684,-0.7412904178482368,0.035585781124311176,-0.11688519200164255,-0.6779417035547822,0.9507640591969713,0.10318102340014859,,
6.647793,30.45928646689681,45.13831335803809,34.73966708501487,-1.618952024148438,-0.25525015996208283,-0.15992056662678605,-0.7479561714283511,1.1750787884954939,-0.01651907037515747,,
6.657476000000003,30.54974114518747,51.32396005955773,33.960542688886925,-2.024429608137304,-0.6265746989634361,0.2342709414272194,-0.6854539624147393,1.0315778698111207,-0.09381713692166806,,
6.666775999999999,30.38097294565356,55.536098874421256,33.209637934073264,-2.055542244118804,-1.0157448398462299,0.2515814968780229,-0.48329796417752796,0.6914321926416822,-0.12313376533969105,,
6.676451,31.197657801712243,57.87739174665063,33.302884001619944,-2.1547100719319054,-1.1728135864808538,0.8332606831715834,-0.18200250014117691,0.4412213414657104,-0.11802114649152545,,
6.6859699999999975,32.148021305444296,58.010587156155694,33.719943070865625,-2.421271488801241,-1.252887569367195,1.0898557797359456,0.06947969159548326,0.07798970018213078,-0.07776639324718353,,
6.695474000000004,32.60488400526778,56.07117805938052,33.52921973979638,-2.1173141917485943,-1.154723716022976,0.9295135651924934,0.25646653884029824,-0.2957808423984587,-0.11493651927135376,,
6.704984000000003,32.84377409326421,53.29625349952645,33.025227701408326,-1.3562641671285287,-0.9450449619394289,1.0500121759027177,0.32797141831057103,-0.44932322148000164,-0.1399199727855471,,
6.714492999999997,32.4894585277544,50.53191090743043,32.21000816649233,-1.1948168968231623,-0.8479299856641361,0.8720722513933822,0.26147985587241185,-0.48977468539618646,-0.10734711080034554,,
6.7240170000000035,31.378784676552595,47.90429049454948,30.72692234610347,-0.6968167338262978,-0.6442683826924519,0.6076078814976883,0.1507323101038012,-0.524542474909562,-0.1284845805341682,,
6.733533999999999,29.642657913688996,45.64604962162563,28.779567075533965,-0.18360672402371903,-0.36553030576798534,0.021576205191736583,0.017677082425386303,-0.5106497506484039,-0.13652482537143662,,
6.743037000000001,27.70013940153815,43.877602808149994,26.805730302396555,0.4232760456335644,-0.14799431290423823,-0.4646007731420925,-0.07922192034568044,-0.4419611887442121,-0.12126824539066809,,
6.752416000000004,25.76768693834818,42.11738646661381,24.91315168655426,1.0704531960038361,0.14069869894019552,-0.8702671643535029,-0.10094875145820162,-0.4405318321169431,-0.11500743168787286,,
6.761870999999999,23.919760130697302,39.8910998582817,23.244321595052227,1.6026845865151391,0.4112113307797782,-1.3907647041576423,-0.07308884214548371,-0.5208389471401301,-0.09130048899043491,,
6.771380000000001,22.613215828598207,37.21235242280981,22.105099660173725,1.9554552474411162,0.6920039767311837,-1.770096318009426,0.01796523824925975,-0.5737264425550541,-0.06499874128219958,,
6.780891000000004,21.92714295174285,34.18121854348924,21.53293285393371,2.3568631376354547,0.881388670958591,-1.5729094848204337,0.12198755077592724,-0.6048721531934135,-0.03436884601502097,,
6.7904180000000025,21.59543951704551,30.825366332884723,21.30468823720628,2.607478202550264,0.9036704278712274,-1.241354235171151,0.19321745063922532,-0.6459538148433779,-0.009992698716523328,,
6.799925999999999,21.68282893227987,27.380433963039753,21.212058497899612,2.742161670999816,0.7416379974719237,-0.7438609430920228,0.26433086195287886,-0.6372602700653301,-0.02705083362405214,,
6.809448000000003,22.380870568406802,24.21170274851316,21.133676432151464,2.48666709217648,0.6665696289500579,-0.24026243571979214,0.346498876138172,-0.5461477230902119,-0.07651518809242634,,
6.818933000000001,23.31193604559657,21.840982931115583,21.050300955174965,2.1269908133470437,0.5234099416898236,0.0852229998849186,0.33089129233770515,-0.38110687848729013,-0.08961245838644362,,
6.828659999999999,24.48530691191546,20.90864922658678,21.08733046378616,1.5396935281240725,0.37870145764518304,0.017066947507886194,0.2712507189803521,-0.09553845415092745,-0.07821147158013815,,
6.838152000000001,25.919217627486535,21.5727396877514,21.301919443751956,1.2447696302077493,0.2649950720355201,0.18583759445684775,0.2014228450743487,0.220706752391747,-0.06104930738890746,,
6.847700000000003,27.3599747515313,23.85963992542567,21.840968789380582,1.1835051263338898,-0.08489640921648446,0.28853843168123644,0.07913208834371604,0.523621190656652,-0.003495641334145517,,
6.857199000000001,29.24973937431926,27.35424010058545,22.752916488790977,0.4998107212691408,-0.2674451386862621,0.01438545506696402,0.05069968017022575,0.7767496703732021,0.030847949834142414,,
6.876224999999998,33.23882710090903,35.92267278628475,25.868055666257636,-0.6338517716654672,-0.5770710695959077,-0.07735937885594786,-0.09409174087502241,0.9624362193582866,0.1988633635227503,,
6.885556999999999,35.46888322432647,40.54746297702956,28.31052358184554,-2.003300168499185,-0.8842966989855138,0.14571031021593478,-0.10763970551817519,0.9842110989460465,0.25078065517398435,,
6.904716999999998,39.18108984869339,46.96702195614783,32.12487486785577,-2.5136828173194727,-1.2471047796177885,0.9745903353192829,-0.09011051300680327,0.5975565539999658,0.11185926375631443,,
6.914227000000004,40.65677172607844,49.63368785479085,34.02938807435499,-2.539750111269349,-1.6306631638930207,1.6451188649883337,-0.12667285622591157,0.5546392953991837,0.1606170119832707,,
6.923738999999998,41.118392065038755,51.265775906841576,34.59262137961345,-2.6104968931642154,-1.7982568498375948,1.9174935332655836,-0.1355850404587187,0.30308558970433797,0.04149282907855715,,
6.933241000000002,39.98830686792813,51.56455852228491,33.11376500823042,-1.4155058863973393,-1.29669796627218,1.4087242362150443,-0.1505117481328754,-0.02893078305852093,-0.11922253087320665,,
6.942757999999998,37.91019604068698,51.60369186592185,31.279451272795864,-1.296055045125365,-0.9115777381951338,0.4874287469854604,-0.22294211724798862,-0.13112082277238934,-0.04124360538062946,,
6.952278,35.25026087934235,50.93125110087534,29.093935581084818,-1.1101950212502334,-0.5414807570662336,-0.18568432379584332,-0.22033324263849238,-0.2838911164335787,-0.022098753460667975,,
6.961772000000003,31.815486823874856,48.74523107718543,26.286315985460906,0.13794904111125592,-0.09929539017115092,-0.6298708155852188,-0.18941416117955615,-0.5935062045770153,-0.03640362921330981,,
6.971113000000003,28.248889007797793,45.86054857685089,24.086048977040406,0.6468784080648791,0.03296340704920654,-0.9847326050857571,-0.19252395248184337,-0.7285245272994375,0.08450661501519643,,
6.980609999999999,25.607945224370997,42.743053039376846,22.806958022318472,0.5412207713742412,0.11952057662833172,-0.9679809588582713,-0.09889995821212293,-0.7231014692826571,0.11334534568952793,,
6.990292000000004,23.654068204293086,39.00160053306194,21.835819074255433,1.081105354616653,0.4570650622618191,-0.2836469770722173,0.010788236374926399,-0.8052630983179868,0.06167976193942758,,
6.999631000000001,21.375856966148458,35.146722702731246,21.077270702278213,1.0991769179891178,0.41313785286171933,-0.5893077535300351,-0.05648246644834881,-0.8513661417954744,0.12323027434622083,,
7.009163000000001,19.785921241078906,31.785057321440704,20.615604331004207,0.905878725525311,0.38795402918228994,-1.159998225443628,-0.008704176681814738,-0.7234759208686545,0.08316492243026742,,
7.018646000000004,19.170727540180582,28.58899938176606,20.158749112134167,1.345785621102729,0.7402935044606153,-0.9625506078414059,0.12310528519623208,-0.6369132426896492,-0.029503114078021933,,
7.028159000000002,18.61900029485376,25.523331654136914,19.604476614981138,2.1072444884342647,0.7809597767141762,-1.1671966557266413,0.11621523359938397,-0.6106729653281191,-0.060694318950662365,,
7.0377069999999975,18.85191147501093,23.033207243218406,19.18365745364498,2.618364179391574,0.7605683903873965,-1.1673038518086374,0.20565633889394414,-0.4561617256460933,-0.1034168970364793,,
7.047203000000003,20.083352173583915,21.01937766880313,18.89160295243321,3.061329617557985,0.8715136485725629,-0.5243464338743128,0.34758772829703927,-0.3065802909643289,-0.15093731702268884,,
7.056719000000001,21.35787503396754,19.357252339978523,18.681811392524615,3.209171988735472,0.7485209426525049,-0.4522221644515418,0.33392194186229934,-0.23791125130773855,-0.1300672061836623,,
7.066245000000002,22.89602589728357,18.547938063625253,18.998363815984263,3.0349153827309783,0.37970128435630196,-0.0027909097823777033,0.3280741843149368,-0.05881888837330574,-0.069478622345745,,
7.075934000000004,24.816950353161715,18.91899409832718,19.86087136983293,2.2503519553322398,0.02374325981437273,0.3875938655908153,0.31855982613989564,0.1915693111440743,0.023600926752339917,,
7.085453999999999,26.78998267953908,20.32244250471327,21.188270935830612,1.0395698087620333,-0.2754669483547184,0.19053818857631225,0.24971056261558625,0.3937657156541754,0.11758063969512803,,
7.0949700000000036,28.8238713276638,22.819597895714168,22.94248187212324,0.17539381621494962,-0.5833601977208538,0.4615748230383899,0.16305732343804782,0.6056195194623312,0.19652298996536696,,
7.104478,30.754124047802712,26.71365989987499,25.16391855379848,-0.7911492763557981,-0.7639483837263077,0.44019045826884134,0.0031020760182718233,0.854967898208239,0.29170169051910694,,
7.113982,32.56140440220068,31.587681344213937,27.536278817730846,-1.7841273527437336,-0.9512293318369315,0.3903242882313551,-0.14899886115487843,1.0148564973623908,0.3174458139331783,,
7.1235050000000015,34.05223882278088,36.53062413083169,29.398902066353273,-2.389331858902298,-0.9910454779723955,0.5033997850536812,-0.2533399340665432,0.9881064461639937,0.22678533197550962,,
7.132826000000001,34.72101085521798,41.18709315622547,30.432438016962834,-2.5853511594403877,-0.8497220633470458,0.47661314434081603,-0.37393782794457675,0.8603704956077378,0.13948233879723862,,
7.142521000000002,34.375482060113725,45.61691823333388,30.721165987802348,-2.679532189822093,-1.1895838480861298,0.924775022503635,-0.494015129799986,0.7383304405756322,0.11923743736277262,,
7.151988000000003,32.86789989178032,48.57497497807348,29.354108395543275,-3.027385772727314,-1.5010398845981021,1.5087657241299657,-0.47434999799376926,0.4098093975656329,-0.05251844674409788,,
7.161490999999998,29.892835896126318,49.052149970293854,25.886030809847284,-1.7107048614340412,-1.3016684604693474,1.577518969842748,-0.3918108225842303,-0.09721306285557653,-0.24602153112380828,,
7.170998000000004,26.76309521213949,48.61339584302126,22.77383955233494,-1.5048116767557669,-1.009555364713464,0.9833660139491341,-0.33964321265403696,-0.24994887829889165,-0.1513233849695128,,
7.180516000000004,24.121793146325935,47.633745938415835,20.77197304839381,-1.5313825487658024,-0.742699635398318,0.5911554620203858,-0.2550746357035029,-0.31304798867871036,-0.006999022056332906,,
7.190027000000001,21.672165385590155,45.49736862333324,19.405058337502766,-0.7622846396766294,-0.34288871227611095,0.04559041945035695,-0.16980336406280983,-0.5174669037198107,0.08254463244276579,,
7.199534,19.663982014788193,42.92390459832263,18.822652442561502,-0.10027116924703865,-0.09548718403451154,-0.5791251686392318,-0.10363024710830547,-0.5811670741463263,0.1638077500261598,,
7.209049,18.543083898934565,40.43635450491187,18.818441790831333,0.32832744766858374,0.29216520454604744,-0.6214008834828616,0.0020035184863206493,-0.5254878012745402,0.14840467765071996,,
7.218387,17.41048029839179,37.31292458746764,18.582417695566964,0.6577810495208879,0.5589418932962538,-1.078943248272764,0.03325524565309147,-0.6489435189550844,0.09509794988818045,,
7.227868999999998,16.280436239677545,33.5347236481966,17.932069360089418,1.265556534219073,0.647427698084864,-1.5086672726761898,0.06185809665501072,-0.7761271738732162,0.0010051693012180381,,
7.237385000000003,15.723356312864643,29.66285594860711,17.065039837157283,1.6766751271824452,0.7407203494387432,-1.5594350530551992,0.14247157792829324,-0.7679109434349145,-0.11507385753521913,,
7.2468939999999975,15.629243099051198,25.537528510251764,15.988968007404562,2.0162671152719116,0.7965116636236961,-1.3243308250933736,0.21895117379501416,-0.7966017099268672,-0.20662263665312455,,
7.256416999999999,15.806688649503672,21.23092567710682,14.87518009544503,2.5649295384226933,0.6976280593120282,-0.988329342255643,0.26088942544878235,-0.8225065505244004,-0.2369980311521119,,
7.265923999999998,16.481865077328443,17.463018521045797,14.12462258552512,2.8598833308814857,0.5612626133923849,-0.4787559612293468,0.31239553677759263,-0.6984310145439594,-0.19501046723352972,,
7.275452000000001,17.52698668457336,14.606424059919432,13.983132355096686,2.8093657537577092,0.35926154838512425,-0.13422378438808036,0.3339944268813309,-0.5059654367044086,-0.08612708210341057,,
7.284972000000003,18.911632761979465,12.658233876265294,14.484545159742071,2.7358031722912064,0.10636146349215553,0.27541426696989474,0.35706481014927627,-0.311820390998242,0.03503414509913361,,
7.294668999999999,20.521466549890384,11.821252623800723,15.82431065035075,2.6465965892921774,-0.10715260361694216,0.8879563327570328,0.3480102433334239,-0.07867247915704592,0.1523003345535425,,
7.304002000000004,22.021512105802085,12.428671430007055,17.57314089367808,2.051267360617281,-0.11913416673831072,0.14925456636381934,0.2460091241538613,0.2012314870253049,0.2521906292831719,,
7.313698000000002,23.803497414264964,14.563282241063067,19.466727341899283,1.5183447374567083,-0.21525091821506384,0.021753484724628385,0.19278879618436875,0.5156085568166923,0.27539433419092013,,
7.3232050000000015,25.758014362372307,18.18762726178155,21.236579977074186,1.0559522487323927,-0.3110017459727429,0.31927039074072416,0.09943094582556865,0.8109387018466728,0.23538164015951474,,
7.332743999999998,27.22791708186698,23.093190974841225,22.64911786329136,0.3292802158659137,-0.29603619621879596,-0.16338230825303454,-0.11146808776331273,1.0139320939674004,0.17885336332538804,,
7.342237000000004,28.246195974620427,28.965005705796557,23.675083241145266,-0.4750084769461438,-0.35830716020100906,-0.5575297690426618,-0.29390352085226085,1.1529436757140548,0.11572404522130592,,
7.351570000000002,28.860036566446052,35.22550053423849,24.15000179152228,-1.386754938596573,-0.4752124881523891,-0.47176558152823495,-0.41131404451276055,1.1886183294063806,0.059239326233283984,,
7.361035999999999,28.584351627256176,40.84659450804694,24.136019838289343,-2.1939683716275598,-0.8530647143364155,-0.021698353678380636,-0.500011430513324,1.009209255355792,0.03122440934578567,,
7.370542,27.428981825697377,44.94642393770258,23.43668703694314,-2.767350206372009,-1.0067056376454455,0.10268542726574933,-0.48616369624148525,0.6827387398120047,0.017533223010033336,,
7.380164000000001,25.97611843846687,47.9110808674966,23.015311438655413,-2.6306234264533743,-1.1756350495541523,0.23167814739071316,-0.4183357913045079,0.4663637807503143,0.12643085332968768,,
7.3897619999999975,25.322480611167222,50.115035536387865,23.78470619011813,-3.131122882741598,-1.649048928517611,1.1391588997329358,-0.25403555118509974,0.37089039782909844,0.2528207736322393,,
7.399265,24.983853636039115,49.88272177309193,24.491036278777294,-2.4288537864368225,-1.687998155872344,2.121140229894326,-0.020751002970942033,-0.06026916451174612,0.19335627340013398,,
7.408760999999998,24.33594456766239,47.98785401277228,25.07828911998851,-1.287793686239602,-1.4008897953462445,1.9995359624813487,0.0816708490145993,-0.38016803961825063,0.2153794483159166,,
7.418277000000003,23.93195423877169,46.56604222170574,26.222201667669864,-1.9341102549986684,-0.894542251290093,1.081042807740904,0.07375766730406677,-0.2803825452126379,0.2884434778733177,,
7.427784000000003,22.942409365018225,45.5061084779545,26.941426273685334,-1.211932463042845,-0.40431966653144596,0.9157462191228414,-0.02804392624319777,-0.25133131374393325,0.2866037876537589,,
7.4373039999999975,20.5742440296679,44.28729958167013,26.47316668540559,-0.5847596665923747,-0.0687653719740123,-0.017239721535401396,-0.19038761381260585,-0.36891431961908877,0.24093183455567144,,
7.446618000000001,17.616378889736552,42.711153223276554,24.900761227592344,0.3891956742431563,0.22245960078919963,-0.8736930063944505,-0.2503728779620955,-0.4705131401824298,0.0928956987075851,,
7.456138000000003,14.933162529762567,40.791502793791025,22.74573244850065,1.0065975614788494,0.70391177657275,-1.1247930885291098,-0.21143558865883252,-0.513410592571043,-0.07363432924282272,,
7.465657999999998,12.117548320878921,37.98859927589946,20.359335445556077,1.370225795423384,0.8106866834752974,-1.4541352292521235,-0.19913401419005433,-0.6818896874834601,-0.11986566340868107,,
7.475161,9.825797584147296,34.25679552878864,18.30359165328522,1.7892776902407284,0.6969363981169648,-1.530680990425828,-0.10249398812816087,-0.8276544308110584,-0.14086799314253662,,
7.484665,8.843825981301077,30.23502450561778,17.094035146817166,1.9246565067436883,0.6696408320942285,-1.3363768752111411,0.08634969032943014,-0.8176647435392054,-0.13714845416771204,,
7.494185000000002,9.023506002290896,26.278406202494377,16.835339020522532,1.9574493683805783,0.6372914411533466,-0.9392550954337566,0.26146136692507205,-0.7484663699627754,-0.06880982923518603,,
7.503675999999999,10.134497365961352,22.582858727302966,17.38064558177592,2.16108295302276,0.5456949587181632,-0.7355234999033942,0.4112507379299738,-0.6475626934041391,0.017124520859344582,,
7.513204999999999,12.121684489622645,19.59438840192127,18.498562508959303,2.342181117512355,0.5684660980259355,-0.4838895276641653,0.5374916534384543,-0.4548396938110337,0.0805825973446067,,
7.522694999999999,14.387469030493882,17.503902076957647,19.863279286237276,2.4949590782379136,0.4693843128039325,-0.2820720917495971,0.5437271789400877,-0.2539520163437402,0.12885588503239356,,
7.532212999999999,16.75171919163368,16.36597554741674,21.201235164834035,2.592891274641044,0.24864712652044127,-0.07298778117640234,0.5039746583582047,-0.05450112370979829,0.1299525213439404,,
7.5417229999999975,19.365247647482807,16.33399722763723,22.336925078815003,2.408183927175876,0.15042723148347226,0.24189840738542392,0.46867660432510755,0.18027085657480416,0.08004450883458139,,
7.551453000000002,21.572668591172985,17.53984349657783,23.154878657826124,1.9904874314176646,-0.05016616995730906,0.2588087871473632,0.29658206833246553,0.38610011782549036,0.0349891489515106,,
7.560780999999999,23.24948253993673,20.07154202804764,23.711067063495356,1.364636504061872,-0.3194883001761438,-0.26194722127970016,0.09005392783419652,0.5914448308154096,0.0030991465326404644,,
7.570444000000002,24.927126806843656,23.99239334482094,24.262882482785262,0.8592672629055456,-0.4573988354705572,-0.18007573473895713,-0.034581897636629784,0.8437763525387769,-0.01559399315736838,,
7.579984000000003,26.27537797248834,29.121492930987873,25.052574969740853,0.12215364787780568,-0.5214247492918417,-0.3909957349620697,-0.20889708388340014,1.034020500546136,0.03726843913377447,,
7.589306999999998,27.330017639082293,34.94313383151247,26.264606626849496,-0.7376867121434466,-0.702862906477342,-0.6158835102739093,-0.3432734673297146,1.1281745592456733,0.13040865220268708,,
7.598793999999998,28.559446062943497,40.853342444597914,28.039178466970988,-1.888932715072654,-0.793190990458573,-0.6926904849564806,-0.3670859642078314,1.1415757599398264,0.20370581595803106,,
7.608305999999999,29.792573124506692,46.103070843734294,30.263376686986916,-2.7565996656529905,-0.9978386631915157,-0.19065027895783004,-0.35547632983849825,1.0052374674613773,0.27505996770913904,,
7.617811000000003,30.525456091535638,49.98220377595428,32.55984391670249,-3.0732305400898783,-1.3324824315906725,0.6991130096145403,-0.3210556872560913,0.7140051392748759,0.35047379037207144,,
7.63702,30.40094803281851,53.28685783888346,36.56443899502103,-2.8141017547230764,-1.7259358913165948,2.336329457584588,-0.14166372887796122,0.12880104494151817,0.4182797933779279,,
7.646521,28.74798778882164,52.17091653103388,36.87302173041254,-2.2700970982756568,-1.433642626150375,2.0796636725261837,-0.027077119053143195,-0.29892281430872114,0.32514900008460595,,
7.656039,27.065217291952354,50.81211362991514,36.91322332932123,-1.9858395980323105,-0.984815651177843,1.5321679234654353,-0.0044632185296047434,-0.3435024499235879,0.27170058464450964,,
7.665545999999999,25.265935224188304,49.89479321473744,36.74135634009454,-1.6293528609333674,-0.5989617947053739,1.0390791962842243,-0.07390800678639695,-0.2847800451994418,0.2429833804313022,,
7.675052000000001,22.692405067122966,48.44705163269019,35.471336360367935,-0.8416293419152183,-0.10664223466803163,0.31674273908239897,-0.10139296285108201,-0.43265840585960197,0.1356446501465538,,
7.6845830000000035,19.63700232856064,46.54299867001922,33.45319652704788,0.03956570934765844,0.4344108969427638,-0.41441787141887443,-0.12512330825778803,-0.5481102291019052,0.047024558549440196,,
7.693911999999997,16.576486626345954,44.50902814568093,31.224992184348917,0.4223672877659247,0.5471826320052178,-0.9969828616784566,-0.14492870627256796,-0.5736129903196662,-0.00875089581199841,,
7.7034340000000014,14.14470481979492,41.96960335959448,28.964243365162275,0.7059447753301616,0.5959478998587269,-1.2665626342706837,-0.05199543901529935,-0.617685408730324,-0.11896500942165456,,
7.712916999999997,12.599893096744323,38.71250500380382,26.942794998668344,1.3699511499608465,0.7849726881301546,-1.3008447877235825,0.09740112635363653,-0.6865344801736566,-0.20435988696890467,,
7.722425000000001,11.974236728612846,35.10945060026605,25.512746622451072,1.798651892674842,0.7114632637708562,-1.3522654949431265,0.228952398907026,-0.6913981436494374,-0.2109801629224425,,
7.731949,12.471477115165666,31.309486943942048,24.810591604844458,2.024484738243483,0.6526087691654063,-1.3876645631492066,0.3988900162259606,-0.6532085587239018,-0.19506874665368318,,
7.741450999999998,13.80228839190349,27.349844038296517,24.763222565922632,2.3204576650985898,0.6060274021079739,-1.295114381994511,0.5432968825190317,-0.6223125447576414,-0.14002275800173195,,
7.750951999999998,15.801972153520039,23.472418496164774,25.266994652703538,2.723124756463878,0.4731230810674736,-1.1055915770683322,0.6560140165912022,-0.5504809559101456,-0.071019070554291,,
7.7604669999999984,18.653304565177034,20.054495954768797,26.25674103289661,3.1266444357784997,0.4702300046991774,-0.24501778507425742,0.7749270356864313,-0.3857053176623291,-0.013631282985121979,,
7.779490000000003,24.420408507313457,16.190581122808307,29.439007393171423,2.5131404599503244,0.023635672513439454,-0.23359774234558733,0.615867531333007,0.03170026860685642,0.18841541518713573,,
7.789178,27.78139571338321,16.11929713233381,31.48463244766268,1.7649807420784593,-0.08165920334594191,0.16461780826841585,0.5643733024769915,0.31538296808959565,0.22222908525229565,,
7.798718999999998,30.633603281086824,17.46362279334261,33.65342967309697,1.0583660419302194,-0.3362590572674895,0.25348011153327055,0.31589120871064674,0.5211029854014553,0.2691510434049244,,
7.808229000000004,32.86601319283123,20.3943213194942,35.9622920066254,0.23481768113838705,-0.5686775756350396,-0.22543740062756093,0.012276327924849175,0.7231136261147075,0.317110236628257,,
7.817757,34.80239252065437,24.426889744164516,38.218058736083,-0.3678353469217817,-0.6898540741436948,-0.09543420816669365,-0.2013722354108611,0.8600888701501836,0.2912884050816299,,
7.827272999999998,36.04910407835721,29.245904135576748,40.25063022891769,-1.0172971497798304,-0.7597187504167278,-0.22230479387039784,-0.43805782193106924,0.888062283715118,0.2842327611764424,,
7.836593999999998,36.832818372454454,34.39330132442413,41.988439892785856,-2.3632498760856104,-1.0651765093217034,-0.2148529968250385,-0.5776275625056554,0.8638757866597688,0.25572737182665023,,
7.846060999999999,36.603813466488674,38.603737335598844,42.47164717440519,-2.9770813139125325,-1.270127643626699,0.43605010489652124,-0.5938917964921273,0.5994292506430386,0.12398021396430436,,
7.855581000000001,34.96454493628264,41.630083733965115,41.771684010790366,-3.335625464353999,-1.6943020517633565,0.6857944877656499,-0.5925544709886553,0.28103615341558347,0.0713992429150935,,
7.865268999999998,33.041164605962365,43.42489723864083,40.467232843743844,-2.905189897092694,-1.8661394417774229,2.2522033229178438,-0.45009375674072494,0.08404808574016702,-0.0008266117443475112,,
7.874772,30.230075183287116,43.84623701354326,38.69846708892963,-2.121318333511611,-1.438316723464846,2.709538229936465,-0.3676664372808554,-0.19454464877970104,0.034293226900463776,,
7.8842890000000025,26.717681036111554,43.89999521415451,37.37805558731751,-1.7983240448068987,-1.1141541271180484,1.8181190564999197,-0.40587975253118774,-0.3038839711219448,0.22306622446342697,,
