timestamp,Roll,Pitch,Yaw,Acc X,Acc Y,Acc Z,Gyro X,Gyro Y,Gyro Z,Acc Magnitude,Gyro Magnitude
0.0,0.02164933563603606,-29.570017280167413,-28.14527591470696,-0.07527341978344446,0.01163472086930328,0.05505370996374767,0.0,0.0,0.0,,
0.009496999999996092,0.08429764385697346,-29.47955604114979,-28.18477569025245,-0.05131196064919669,-0.012569332347237479,0.06950471835926259,0.0,0.0,0.0,,
0.01900799999999947,0.16828653934825402,-29.413635845763654,-28.27619376046514,-0.06024817362008303,-0.02231957394146612,0.0753580931107055,0.0,0.0,0.0,,
0.028518000000005372,0.2458616309704224,-29.367505769835063,-28.368839219965242,-0.07319312364144634,-0.03370212741387063,0.08599192651920247,0.0,0.0,0.0,,
0.0379740000000055,0.39410429475084585,-29.39205446484497,-28.52866827864725,-0.09052234465050417,-0.041606387920124104,0.10591346011269122,0.0,0.0,0.0,,
0.04748499999999467,0.5229154890965542,-29.422542166379575,-28.65206696607601,-0.11028795271259316,-0.04658374436709907,0.13199981710101918,0.0,0.0,0.0,,
0.05698900000000151,0.6230545145397017,-29.449017880099014,-28.722738253615127,-0.12657617119774586,-0.04799840809604827,0.15574778261010555,0.0,0.0,0.0,,
0.06647499999999695,0.6804602914552368,-29.460857589481947,-28.781065367938986,-0.12449248726730479,-0.0618650669053537,0.20194660314793916,0.0,0.0,0.0,,
0.07598600000000033,0.6994675844067098,-29.457393188597894,-28.86892598850928,-0.11139094750891025,-0.08958358560169447,0.22920772998951486,0.0,0.0,0.0,,
0.08548700000000053,0.6971908110559143,-29.446057909265562,-28.956204251703163,-0.0976627232376843,-0.1107488132389696,0.2687802424038132,0.0,0.0,0.0,,
0.09499599999999475,0.6592729647869138,-29.435706777354905,-29.048289105389724,-0.07957668258397622,-0.13208699786425682,0.27651956772707004,0.0,0.0,0.0,,
0.10451799999999878,0.5825221579831521,-29.433866750145203,-29.068711817234153,-0.06712660546587673,-0.14098398397309214,0.26345128326880174,0.0,0.0,0.0,,
0.11403800000000786,0.4744411087588529,-29.4285866997817,-28.99804450825712,-0.06802553158322604,-0.1308458062071076,0.2254361518386825,0.0,0.0,0.0,,
0.12354000000000553,0.3499900183290058,-29.39297009854314,-28.851481969533925,-0.10998170542495092,-0.08896947639395114,0.20129339495096238,0.0,0.0,0.0,,
0.13304399999999816,0.2233609324849665,-29.289959118405182,-28.641690007084726,-0.14847244561354336,-0.044712715856963264,0.19408795203883028,-0.009423699249858397,0.02872476017570385,0.05372297623042288,,
0.1425440000000009,0.11342880303116863,-29.050050544113653,-28.399575499064525,-0.21231088229577316,0.004853338626316606,0.21306803111080738,0.0061096839057855614,0.05138249480724408,0.06175959086543894,,
0.15206399999999576,0.02522404792292859,-28.592695726351984,-28.14554696594463,-0.210195388322902,0.022752415296007845,0.2431291911307117,0.02983738711717478,0.08796223800628791,0.06293438940982933,,
0.1615850000000023,-0.06832963826494225,-27.900676007390814,-27.94287446724615,-0.17285494272763458,-0.0014174765924086885,0.28714251304636673,0.050738482996134614,0.13001160183754198,0.05716861481608478,,
0.17108000000000345,-0.15042573357444697,-27.005313107911437,-27.756334347992684,-0.07342162183633968,-0.06850692059161122,0.3812561737730814,0.07104866763101751,0.1652703630488729,0.05494395610747836,,
0.18059800000000337,-0.24009741539277824,-25.92381196264986,-27.543163898206924,0.05835300948646606,-0.14179632038683596,0.43735921672323036,0.08649180555700299,0.1992063816650497,0.06007986629997427,,
0.19010000000000105,-0.4010244023949391,-24.7214051095296,-27.27204882191389,0.1830425333587308,-0.21372349732059603,0.3941261291463953,0.08529779685916583,0.22705012394038118,0.07212996878448309,,
0.19961700000000349,-0.6503278353540164,-23.4677266865272,-26.84286457220304,0.22857645243071714,-0.25968991318790074,0.36768689107607216,0.07393500185012232,0.2442098203712817,0.0950222918577888,,
0.2091309999999993,-0.9515629957136837,-22.135072571329584,-26.230792077672717,0.20172284290986492,-0.2792719000727456,0.37364512167163316,0.06983945641184741,0.2635013959682766,0.1298277334418341,,
0.22817600000000482,-1.6482982908555934,-18.880838336625377,-24.544042934737742,0.059438897723550516,-0.24472241540842304,0.014087530147589997,0.086836805810784,0.34439708467127567,0.21327435123311902,,
0.23767899999999997,-1.9231167070508248,-16.910572919107548,-23.41802832910392,-0.028081695596708728,-0.16901081178843003,-0.13618130358233738,0.11331264844712628,0.381542899627264,0.25615635769702927,,
0.2471749999999986,-2.1280743352637725,-14.652316471202454,-22.191861863235395,-0.05072351848556436,-0.1624450894046846,-0.2661514600855412,0.1398560669494573,0.43186664835173333,0.28608713514129536,,
0.2567190000000039,-2.1674876952758786,-12.078094785279793,-20.902137887985432,-0.05243552262165988,-0.19223360116868501,-0.5017039375698092,0.18338022793408248,0.48184324388253336,0.31287199630176427,,
0.2662260000000032,-1.992936519719696,-9.364830243520304,-19.562075424626403,-0.09735431959371386,-0.10938781572809943,-0.49505631974987335,0.22145878007278968,0.49735482239035717,0.33558778766176506,,
0.27572500000000844,-1.7288049024660668,-6.629259756445236,-18.187764498703476,-0.055528721760111,-0.08342603076831392,-0.5039898436595184,0.22812496686354988,0.5008018435501913,0.3434520937785291,,
0.2852400000000017,-1.2590677989728187,-3.6926340869726864,-16.81827287390145,0.11999686672662498,-0.04825633612912997,-0.5147718996611609,0.2676022927541658,0.5319751368961779,0.34181818201538466,,
0.294747000000001,-0.532979710145072,-0.5610848426312974,-15.488570728541132,0.14554024518304484,0.0865480415510482,-0.6032101085062641,0.31544132630432803,0.561131958526381,0.3284039672377893,,
0.3040770000000066,0.16111845677417214,2.1612284658163556,-14.243145856386874,-0.15827879462048258,0.36116795806417257,-1.0856977366929426,0.27539482051765807,0.4905740768631246,0.30306143299010374,,
0.31358900000000745,0.16004296888946537,2.4160725671406293,-13.027118060763078,-0.917442373515771,0.9118227835696702,-0.9746647054744956,0.011909004479358767,0.049624945719613435,0.28482800002611375,,
0.3232980000000083,-1.292770033511252,0.7278591874262104,-11.71359686327579,0.22044743748329634,1.0647650908330966,-0.02453607740769156,-0.3567003643382292,-0.26763501396345996,0.2879765049699741,,
0.332800000000006,-5.04559473696911,0.2170401980669332,-10.368994791966117,-0.7165968029352205,1.079166280008778,-0.158404481281042,-0.7571329084332195,0.04415696443724613,0.2935291496220118,,
0.3423130000000043,-9.89944940149016,0.29154294228940836,-8.871443406145763,-1.3287991320820753,1.2894871608979919,0.5977990669807861,-0.9555766680868051,0.17854751638093985,0.33799212010657714,,
0.3518109999999979,-15.737386521534063,0.9987099681215856,-7.322425633416242,0.3011484023348665,2.4894233721096315,2.846979374635087,-1.1367796614720105,0.307160875160726,0.3722193004337713,,
0.36108600000000024,-23.078314002729513,3.93027316574709,-6.250266559194393,0.12023183706614954,0.7639247235742036,-0.659784549068782,-1.389263969576258,0.7557019394614991,0.2776055252600961,,
0.3706860000000063,-28.52439927724703,6.648380028964372,-5.274060673568011,-0.4014073326154265,-0.9031097830512996,-1.8372637191301273,-1.0259458682479776,0.6501783190495526,0.2958802308767222,,
0.38022300000000087,-29.868295429807503,7.774435332852393,-3.778063609255527,0.3343234297697106,-0.7711614575176116,-1.5918427459060458,-0.24837358448938887,0.24583211486298293,0.3333474109931957,,
0.38963300000000345,-28.05671417152899,8.730594947410731,-2.718463795918781,0.48956922934414243,-1.303698464234949,-0.4689998219206831,0.36927692015685215,0.17078890831559065,0.16010588757438543,,
0.3993070000000074,-20.813814619904328,8.9352846017445,-1.8658017166165113,-0.3789425840133716,-1.1260872530659414,0.23470532703106553,1.433623857374772,-0.016428165179361985,-0.05218436804930114,,
0.4088160000000016,-8.17172844647396,6.433536777680668,-0.8824651289947821,-0.020649326710087842,1.2952623795473157,2.498511704606333,2.496244291816324,-0.5589516620074672,-0.14246201735537686,,
0.41832100000000594,4.334833277912233,2.8122887202100935,-0.9133890743314795,-0.18486333734867574,0.19514820365058985,3.7622683737446754,2.485060222133,-0.7613051912451608,-0.20805310846266775,,
0.4278369999999967,17.55117652154003,0.18906517097635214,-1.9746889404235493,-1.3777831984643458,-0.902500824168115,3.006346115102746,2.631905892981002,-0.5894979692218766,-0.2808448807294981,,
0.437381000000002,32.623316196682275,-1.6002012004403072,-3.8343960986879613,-2.0682418160841585,-1.2249943598877657,4.220810342161918,2.9961894116251093,-0.5087452295183551,-0.3330364908759697,,
0.44690699999999595,45.434389857959594,-1.8578300219508745,-6.020482838367214,-2.1717490297966977,-2.7065528934818697,2.8161361548306534,2.5503421020732904,-0.27148126868215694,-0.3585340138370474,,
0.4562400000000082,57.56562269852431,-0.11863503875077434,-7.076117050820539,-2.1018332726492903,-1.3022475208509188,0.17596297873498185,2.4525829281837295,0.06769891189025352,-0.16872898089141544,,
0.4659300000000002,70.40475132783872,2.533216445820703,-6.975134624417919,-1.6926031716525645,-1.738548237683311,0.7531605434219821,2.6158184317694264,0.21044628013571323,-0.034106308125408005,,
0.4752550000000042,81.25423954336493,5.36456382239559,-5.910463739734982,-0.5790901225054149,-1.054087105329594,-0.7482069293238462,2.217123955839606,0.31853822277504223,0.06282633840322331,,
0.4848599999999976,91.61183285912259,7.479021322911439,-3.7589921300995948,0.3645341964831592,0.7312851951880401,-1.811321908265953,2.0891292612433596,0.2471328389689263,0.19760560564057106,,
0.4943049999999971,103.43304521121603,8.105087905986602,-1.3667839501682713,0.8411297162397288,0.48169160871659866,-0.9962990034815702,2.348085745257497,0.020011659203276938,0.15647052846398418,,
0.5037960000000083,114.54194638546286,7.4547506224760856,0.11339673989319501,1.2910390509627911,-0.13291420891702208,-1.1762960326143712,2.2019900868445106,-0.15387480625715402,-0.005560554480366286,,
0.513306,124.5442008124488,5.889914092629036,0.6337061876141104,1.669953240982351,1.4167598102788057,-1.16326441978195,1.9909272644539546,-0.299574191675535,-0.12871359133786417,,
0.5228060000000028,136.42280311261447,3.846597423826718,0.2106438286712223,1.5455333625176897,0.9038800982263354,-0.8458362010349475,2.3725653589546396,-0.3902511346453439,-0.28619346730274425,,
0.5322830000000067,150.61213570510137,2.6822965144216555,-1.5029478958979798,1.5750324529437998,-0.30674886403168494,-0.9652364110860313,2.833425423555082,-0.2639657565330481,-0.503130276835266,,
0.5418590000000023,166.54960205052012,3.228661547295916,-3.940086602255695,1.5605906995075098,-1.6214309730553795,-2.7395459582666435,3.188215249513666,-0.04272016048662808,-0.6493927658100173,,
0.5513810000000063,-176.8657024735377,5.214270162948206,-6.028635951028293,1.0019306798780867,-0.8779268934532647,-4.436784001601062,3.333354379929445,0.10568055189721062,-0.6596701225972105,,
0.5609280000000041,-158.57604430998887,8.325721349608019,-7.064428381029618,-0.054585109739890746,0.15234339341781683,-5.881238366733305,3.68322854638752,0.1991938208955288,-0.6372370777505104,,
0.570447999999999,-139.39134184041652,11.70192313042492,-6.545395483738723,-1.165381126755016,1.9572333036727967,-6.331730648849665,3.835160334788588,0.2168049488145005,-0.5648682782250567,,
0.5799439999999976,-120.57318707851437,13.902095880438011,-4.849426402089309,-1.9656187872806172,2.8734128651445463,-4.593406897955114,3.6985390787881953,0.06966244164011241,-0.4980897890401392,,
0.589461,-102.00127758166627,14.186015033966004,-2.957176216685905,-2.1617499772589346,2.3556536335934894,-2.915646492580326,3.6018790773807474,-0.1893514576764333,-0.5264894303578278,,
0.5988959999999963,-83.22125661723003,12.656127520669607,-1.9150992024623532,-1.4978110523405066,2.4618878532178905,-2.052629923494578,3.640874588174953,-0.4587839794042986,-0.6659244653069188,,
0.6084050000000047,-63.3085151957663,10.295672252358074,-2.757349109499106,-0.4672030224860571,2.9000370978960457,-0.8626966806463204,3.885661689351699,-0.6268301007913691,-0.9603801902025123,,
0.617912000000004,-41.97181696844082,8.502939352057048,-5.0935600470620965,0.9221679271549175,5.769009702502863,1.886094677703457,4.182175958713935,-0.642676089328255,-1.1603140487222137,,
0.6276100000000042,-20.516274937027497,7.6000299476495385,-7.574671824334226,2.3131533162856903,6.116980652190217,4.999920095566277,4.209488822531609,-0.6470597164693295,-1.0928930087265425,,
0.6370730000000009,1.032463627795924,8.175965067791093,-9.41206398091356,2.3039342634618545,3.283603331939878,6.890798413748106,4.245010015908478,-0.5186571596239797,-0.9558532632295454,,
0.6466309999999993,22.8031123255985,10.099525344708871,-9.603215205033582,1.0318354345381817,0.5779618597367615,7.957804421879285,4.308203471983916,-0.33568230829194745,-0.7301992380103062,,
0.6561420000000027,44.817404544274815,11.031935280884003,-8.438365108959461,-0.19605286677140177,-3.258836901887272,7.12941514125449,4.308386551987965,-0.497259389993722,-0.5778504671617584,,
0.6656520000000086,66.9382181534758,10.474065761549522,-6.730877842721052,-1.2702608583699184,-6.099387856709746,5.022419132670208,4.298337659236855,-0.683589769095559,-0.4885788792196336,,
0.6939610000000016,132.96234856574858,6.979233664371228,-1.8742385237065908,-0.8765387276759614,-5.919575141440408,-3.4485282618927755,4.322630299695457,-0.38657015540534545,-0.30577376458924965,,
0.7035479999999978,154.89276210926408,6.060669500880095,-0.4515394982028787,0.22773118782282079,-4.947369084177122,-5.804802588638222,4.35704716866868,-0.2701520626471382,-0.21705983569060674,,
0.7130989999999997,176.82474233060913,5.402856247144527,0.8013650072799162,1.0872472092964132,-2.9539075895207483,-8.805073546333503,4.368698688306951,-0.11677698087874235,-0.19063718757945058,,
0.7224099999999964,-161.2939460585349,5.024362335871242,1.627526281416136,1.5336283623586564,0.6063271656963423,-9.414041201299227,4.362660668700411,0.01758863552743926,-0.23460533155715124,,
0.7319260000000014,-139.4834769502585,5.009409746626503,1.6861904492399824,0.9792194181805832,3.16335809348983,-8.957981581921828,4.347743841372905,0.1228008706872817,-0.37021696765060963,,
0.7414349999999956,-117.70473269409113,5.9337500721400245,1.410742893521778,-0.09076528765923525,5.734912683905049,-7.305192969487083,4.3337570466831306,0.3000900795961072,-0.4702065486104719,,
0.7506840000000068,-96.1331381714322,7.698238480800814,1.5849855381675764,-1.0159629119703835,7.685561884779794,-3.9569922083313984,4.277796104463946,0.4611099870866572,-0.47803168086988074,,
0.7601960000000076,-75.55602347973098,9.583748170770912,2.1252352072687497,-1.6457456034316191,7.465749391333291,-1.0958856790433313,4.058959865008085,0.5051213373078604,-0.5119141956157486,,
0.769880999999998,-56.703149297214665,10.931112300820784,2.893562377147756,-1.5279457109787877,6.128860008314286,0.25358644332219005,3.699168064627229,0.42969756463672015,-0.5196725553673126,,
0.7890440000000041,-28.191189806641926,11.745354636099648,2.485516080914667,0.21970966348477788,1.6498847968707417,0.7760793830387563,2.614797481921662,0.18488621882090112,-0.6768022611463007,,
0.7985900000000044,-14.0890868272634,11.890550203421574,1.2338549159461312,1.3494068390067389,1.7237810897138361,2.313640723243798,2.761964624419617,0.11863911121641217,-0.8277691859010601,,
0.808099999999996,0.36122724909940007,11.953528567140308,-0.1604340309065637,2.5374177233784465,0.5184419404321159,5.076206689200762,2.831374707951658,0.039074875368165056,-0.8755586076615198,,
0.8176190000000076,15.424544280340601,12.07002991994169,-1.3058463914072,2.6340980180962243,-1.6216239499457004,6.369994581523348,2.9507440979881516,-0.01456453317607763,-0.8558564044886519,,
0.8271519999999981,30.538025758046867,11.602247006826865,-2.14908291864281,1.921610492455771,-3.0196982743477587,6.28008149856003,2.9581532849162473,-0.1824051563192264,-0.7886733462944551,,
0.8366579999999999,42.407910522710466,10.54544637060811,-2.9065568248063154,0.5572866358429514,-4.353640637310622,4.665997840602015,2.3211841575502197,-0.31357271684488675,-0.6076759817145633,,
0.8459859999999964,50.93200053902761,9.340242169323831,-3.443623137164937,-1.1736633111321664,-3.404667057962273,2.040163786067085,1.6653642450977797,-0.3336680118564629,-0.40204340425834195,,
0.8555780000000084,56.89119393834537,8.061469546378612,-4.034273269068027,-2.1626852071173452,-3.0169948681638887,1.803167559190415,1.1603612484527077,-0.3322381762328307,-0.2986475007695931,,
0.8648880000000077,59.045696579709364,7.366476412808872,-4.297215221305451,-2.3233986135317135,-1.8035189142913055,0.3724883518541496,0.4162661833329946,-0.16984995126628974,-0.11053470304296024,,
0.8743960000000044,59.774282481331426,7.652905657427823,-3.315048062706666,-1.9527026899221192,-0.4989156755341802,-0.6706142889088753,0.148122095113409,0.04765616644405941,0.1776002599043969,,
0.8840880000000055,60.51849144760842,8.657645904981472,-1.2828630203646367,-0.9970154033706623,-0.35460149049134665,-0.05902606370201565,0.1554616731614997,0.19518139350625505,0.38575909406470876,,
0.893414000000007,59.73872266962113,9.93698130407565,1.0490405954902162,0.014481664530606826,0.8441999340482945,-0.9607878534787346,-0.15358926203278264,0.25657911415838386,0.49212291942747877,,
0.9029230000000013,58.714729004771044,10.930251722260667,3.048287260339963,0.8303762562329953,1.5734044556440199,-1.7884627065117118,-0.20865842332788465,0.1916259775913989,0.43742997855523713,,
0.9124330000000072,58.29664359364757,11.601024337444274,4.681868012257923,1.1285208596348975,2.0272291412566723,-1.8643304728541328,-0.09098616194339798,0.12852976098999505,0.34345299183539085,,
0.9220269999999999,57.947159987363044,11.894470311295233,5.664612759089913,0.7439094777198945,3.1963082502237583,-3.0327827851233304,-0.07354206053717068,0.05237178680962267,0.21103205499938005,,
0.9315440000000024,58.879474039257516,11.6608175030011,5.63582036761819,0.5740227703003584,3.4789837507381915,-3.1186042262593965,0.18646943361964768,-0.028568633983193724,-0.04386329876624106,,
0.9409629999999964,60.72512037627826,11.282878622576067,4.792052999758816,0.6438185112364158,3.056208256886157,-2.4297053795769545,0.3675673868155191,-0.04247326999080238,-0.24243879095564722,,
0.950556000000006,62.31195119308684,11.326391642162685,0.6805417249530434,0.31789062872248824,3.2455389409833852,-2.924256612348652,0.31131754809539197,0.015546487906259992,-0.2955271199538172,,
0.9600640000000027,64.66326179901583,11.821236449575899,-3.5050003757976143,0.12880653268976627,2.3620055260432133,-2.426492938011606,0.4655094647429797,0.07664951800354211,-0.38951733767973995,,
0.9695830000000001,67.33555832262132,12.757770951373699,-7.775154863143848,0.00555852752408269,1.4564682127083965,-2.016234551033898,0.5416288035495868,0.12315185654580497,-0.4581921869360688,,
0.9790920000000085,70.35097240481,14.021009330543107,-11.9101638462736,-0.0983402616993028,1.353950192470346,-2.156999452450107,0.625059101547183,0.1353120653363064,-0.4737950747188563,,
0.9886060000000043,74.28577032501552,15.350352655149363,-15.667517523458017,-0.1983676875284004,-0.1114249863569007,-1.3024175204251767,0.8050591759457872,0.060001926592003804,-0.4744928871800233,,
0.9980340000000041,77.62063137124869,16.579106187944937,-18.83844768012427,-0.5072209193467314,-1.2745682834206584,-0.9129635799740848,0.68683651239603,0.030486214463671404,-0.35046470224494436,,
1.007546000000005,79.27927360406981,17.375020305264865,-21.704639149371697,-0.7357970532508201,-1.929766629357344,-0.9049736907114335,0.3539219416094748,0.03205099384873882,-0.19158210264939549,,
1.0170540000000017,78.62273988959326,17.52080394667252,-24.576611031670915,-1.1371988180274706,-3.727442690600145,0.00813429326450515,-0.10212754941752508,0.07840345238084254,-0.026180327302721698,,
1.0265569999999968,73.77349512208338,17.14596690175192,-27.388550708818613,-1.3350912733792637,-4.7742039175031925,1.0975662764094203,-0.8578845228329881,0.3587435824034461,0.2621985222070968,,
1.0362439999999964,64.98931913169501,16.243531766182965,-30.39914264880024,-1.2281364447946577,-4.836205256410456,2.985514486276245,-1.5460072277082917,0.693230770447602,0.45060669061636555,,
1.0457719999999995,52.13738460770629,14.682885360530534,-33.90056968809559,-0.97644633111708,-4.328593163638482,6.327881226175756,-2.239355573560155,1.1105655044997924,0.5384593405135423,,
1.0552660000000031,34.42922089490294,12.53451493892154,-37.557470963696204,-0.5701389310590966,-1.4527180282444463,6.318298268720092,-3.006223213789122,1.738172812940889,0.6507416836409884,,
1.0647710000000075,16.421092030938706,9.969032369035597,-40.685916574120974,-0.5362258139301964,0.37245320406709076,6.524405735672499,-3.0214624507186305,1.9078748494576432,0.616719669892964,,
1.0742869999999982,-0.6881469393312539,7.500329476225164,-40.25799170314223,0.7087232225116957,2.8396935505357725,6.050973922048281,-2.894855621896191,1.8249633764200333,0.6053941702578776,,
1.0838010000000082,-18.160413682301556,6.011350322151237,-39.016698920490505,1.2721836928604797,3.200516954511578,3.3111501267360968,-2.8647536421247426,1.9888593146226416,0.6582425708739367,,
1.093322999999998,-34.07521704197573,6.417122235512855,-37.40101021712874,1.8798115968972777,3.222611869718586,1.7965745709592482,-2.439738127561298,2.0232217155228245,0.6664426470803025,,
1.1026470000000046,-48.91780273656325,8.184891575015852,-35.928873032486784,2.5511797562066705,3.7394476303559934,0.09161127980663343,-2.1548281704730545,2.0429598841161667,0.6708857944456573,,
1.1121610000000004,-64.21862184117715,10.36150066090441,-34.76567954851112,2.569663991306099,3.1768041830591427,-1.3198675928345822,-2.216021693448035,2.1029878729421725,0.725322805681353,,
1.1216600000000057,-78.99066165243313,12.58498306936369,-34.31541830161776,2.398957020598503,2.6172388786709293,-2.26028374839834,-2.1368729549145806,2.0084094492994495,0.6780910715441035,,
1.1312620000000067,-93.43122293340434,14.262708860238353,-35.015754606264544,3.0257394692096606,4.1329300536476605,-4.28493171475191,-2.122930083237974,1.874421104876391,0.5317535903100636,,
1.140775000000005,-109.99638756845548,14.632713989603149,-36.01887506764446,1.5602864003887056,3.398461514755723,-5.472565157736108,-2.571072192358444,1.9255219797646965,0.6279087712788987,,
1.150273999999996,-126.67287361671576,14.06248584156155,-35.67728261115627,0.674051446254086,2.2732587360840495,-4.960742463268923,-2.688329590121809,1.8024218570488728,0.895271594842617,,
1.1597890000000035,-141.22407323892062,13.285691142119717,-33.8385138972751,0.053680527854453465,2.056907503504349,-6.157954146384371,-2.414187305307277,1.4868782123769624,1.0549694114177153,,
1.1692960000000028,-154.98617292698825,12.84308089636923,-30.90463880536447,-0.7731664190695894,0.9552327108988831,-5.202440096142863,-2.314699051856541,1.3628333887143165,1.2075688737882893,,
1.1788070000000062,-166.89812656432878,13.406810616070599,-27.49484660176497,-0.40440357248669545,0.35860511450060145,-3.424913987747978,-1.9731183264092695,1.231612237773979,1.2219438571610308,,
1.1883160000000004,-175.92616936169375,14.621241761741173,-24.52958793929913,-0.13978731947663373,-0.2395029713937109,-3.3992894141771086,-1.4698783419305324,0.9874108095267046,1.0302541019875333,,
1.1978280000000012,176.60679300426253,15.734601664374088,-22.624274695813156,0.9093133065927705,-0.2875109294016065,-2.0283076220009906,-1.2333696501959026,0.7812086941509042,0.7723740086305498,,
1.2072590000000076,171.65953326984865,16.471809777162644,-22.159578333658516,1.545437719052115,-0.257391752882692,-1.4392501348781221,-0.8235818265879531,0.4988920587439676,0.36768910675533356,,
1.2168539999999979,168.36090851766113,17.096111565581005,-23.180346036875385,1.0957451606632789,-0.7072741531095977,-1.9526826712079024,-0.5351778376323737,0.35897757052568013,-0.013678306780034817,,
1.2262879999999967,164.5994778076145,17.877810449994435,-25.49788913814379,1.2701464118185728,-0.150327849248759,-0.9277971946469777,-0.5898535860475466,0.4385341656837245,-0.23766947806808897,,
1.2359739999999988,160.61546282778943,18.595380643866907,-28.757817307950827,0.2830223699823556,-0.30821539635723627,-0.7462932854756348,-0.6086675025021644,0.47319754534732167,-0.4029699779480979,,
1.2454859999999996,154.28315106510257,18.999533738992305,-32.24657476289423,-0.40284423098408617,0.02443328186686847,0.646594011101169,-0.9928893939693654,0.67867814731588,-0.2895106120761307,,
1.2550020000000046,145.3916902465381,19.309668898740394,-35.65339167670216,-1.1955870762275234,0.4542274582555197,1.2101436362201097,-1.3600292505477598,0.9902515048333543,-0.09693927518394632,,
1.2643290000000036,133.99864670191891,19.17536918199509,-38.6720191760935,-4.200850367205229,-1.1759504077273495,0.3909004633898007,-1.7319766657813722,1.2791409001889038,0.14899975167124088,,
1.2738190000000031,117.68304655320937,18.144318705440774,-40.664876684151984,-4.928070701496776,-1.5697442702714601,1.6077548775288861,-2.512518934875643,1.8171664631840803,0.6485054390514295,,
1.2835150000000084,98.04622523027165,16.09669151062576,-44.26425007767428,-5.874568413601592,-2.5153154707776246,2.724551592278787,-2.9932984410326275,2.3063635035080114,0.9662167487639699,,
1.2930300000000017,76.92437154514762,13.198207843973742,-46.261632918284874,-5.2624780452173185,-4.188142661612777,5.604951078868794,-3.229686251027564,2.5779277646910166,1.1953331231330497,,
1.302543,55.7971173019532,10.656250471938058,-42.95924756510837,-1.892923252250683,-3.844813943032143,7.089200576092419,-3.301788396652345,2.550089902270731,1.5283906276539057,,
1.3120490000000018,34.95294992234355,10.015207537041135,-37.54817880211609,1.3791329613754528,-2.5341179689267546,7.513283312186718,-3.218569731704956,2.5587501917923343,1.8207554045224044,,
1.3215179999999975,14.298277472001896,12.163676531682647,-32.03168684048426,4.300399611794818,-0.08612477256208781,6.970355958635073,-3.093564130283249,2.6680239042469474,1.888477172612594,,
1.3310730000000035,-6.584648865701328,16.92894876070219,-28.762013750864522,5.99422550468548,2.5140400975319257,4.386639943577746,-3.016609787368128,2.8642787168263184,1.6981269153071497,,
1.3404079999999965,-28.565816398981873,22.058020954072443,-29.32929486319958,6.254504003082271,4.989423120354438,2.1845757198704105,-3.135866153062243,2.901821720857334,1.3570699174370198,,
1.3499180000000024,-51.906416408568376,24.40987396175834,-33.20763895192968,6.366308247360561,7.1661481730398116,-0.7179490174700942,-3.427549308837022,2.6244710261055135,1.0764580391054268,,
1.3594350000000048,-75.70301603442351,22.956804645292486,-38.1410952234761,5.330903340571461,7.236830905077955,-4.025723897713141,-3.708595936762519,2.3098059570488334,0.9380246285300635,,
1.3690150000000045,-98.53191426462618,18.548751610785402,-40.99298632403385,3.5936865472368464,6.416208089927247,-6.687643972826796,-3.848580607057595,2.050816801299843,1.0557046847334979,,
1.3785270000000054,-120.1169826891635,13.550294874174275,-40.15161529095296,1.8295979639263913,4.652433334567574,-8.598113010475373,-3.7994017568058553,1.9509383781088196,1.3615634014887104,,
1.3880450000000053,-141.2504049129793,10.14596593771992,-36.85535055117997,0.49446085597533246,2.291429430102865,-8.662065553876605,-3.6623118706735482,2.0517623508077665,1.5214375067757615,,
1.3975460000000055,-161.54123407727502,9.234263034970326,-33.29446412220895,-0.6668034362470013,0.2650274686488614,-7.368336341608958,-3.3823663592403332,2.154082324575729,1.3894916985228405,,
1.4070430000000016,179.8996225304613,10.493422774479797,-31.227547721169895,-1.5465444453878285,-1.3388463425314796,-6.844437166695489,-2.9625888007660417,2.165690650171996,1.0468059882075116,,
1.4165590000000066,162.3565443861616,12.080042355322552,-31.510808460986414,-1.0084313952105228,-2.0996407478235026,-4.155730209260141,-2.776476566437774,2.06190221806138,0.6310403670211535,,
1.4260890000000046,146.77509060644343,12.100089198635153,-33.61806560854202,-0.36663516679651076,-1.9209126264998548,-2.1520998679188965,-2.568078504736521,1.6447905639789058,0.23384301107128425,,
1.4355230000000034,133.0217106788614,10.548348711639555,-36.542236949961975,-0.9758668359203913,-2.2765189201986815,-1.3021717762427993,-2.386906967730879,1.2983729398997301,-0.04208798375230931,,
1.4450230000000062,119.53867638046586,8.268751921792763,-39.500743109635934,-1.665839776779959,-2.409221484960023,-0.6436511837116339,-2.3777482314145746,1.282280946771831,-0.14829935344951545,,
1.4545269999999988,105.86365734417203,5.882980113192585,-41.63355051920291,-3.5317435061068037,-3.4080983730038366,0.2315800063192734,-2.3732355099248177,1.4057688189942095,-0.08764356186595464,,
1.4640470000000079,90.3213793430571,4.350992624677481,-42.56690748685369,-5.707194002304478,-4.658616460142543,3.0365895219913672,-2.504072748033224,1.8516722497233282,0.09186027667674786,,
1.4737280000000084,70.74356834953889,4.440920370254156,-42.833725845594884,-5.088028027482175,-3.4435974322910483,6.226804899025431,-2.860191189988094,2.66358897694565,0.24754374043469035,,
1.4832480000000032,48.98360210949596,5.786882236196168,-43.43140972566562,-3.084016072019971,-1.3775096682810628,7.763706691305422,-2.9849651980750975,3.1613024623578685,0.2700942642124399,,
1.4927670000000006,27.01311281344253,7.118730030230988,-44.93154905331439,-0.6157322872522453,0.7853749021746056,8.225224495394047,-2.9512888939367907,3.235406016678749,0.1976812176790762,,
1.502278000000004,4.980323054969919,7.3714645114387,-46.780308386180856,1.727814446915877,1.8605473738985705,7.332071555838368,-3.012144693152755,3.1752553773266454,0.19072276955325604,,
1.5117809999999992,-16.402126893137442,6.702862707813077,-47.73586274809042,3.9077474208941534,2.596338164297414,5.500411925182991,-2.981191029287121,3.030988679751621,0.33543379861753014,,
1.5212750000000028,-36.01687960670224,6.060427956192574,-47.264604400987096,4.7655378435402005,2.698802061304924,2.3931180255269124,-2.7311194086295094,2.7919420179911687,0.5300197072863456,,
1.530619999999999,-53.807755480882,6.2069788713757745,-45.85956561218398,4.143262013784739,2.1889905919656023,-0.2668867541730814,-2.4145006459569505,2.5921788802594095,0.6597541638637009,,
1.5401240000000058,-70.00921303380969,7.087092872877118,-44.313815171155966,3.166983919895422,2.158524995817067,-1.6184347339040517,-2.1513137521363555,2.405761331601398,0.6830116012930291,,
1.5496370000000042,-84.86850241812587,8.079181847585252,-42.96986009971485,2.376530219422642,2.772772145884294,-2.6491487610515994,-1.9981071570446018,2.17851657960726,0.6602752027508322,,
1.559229000000002,-99.33225384787484,8.549104663986386,-42.06395817016553,1.546362943896561,3.3816266307159117,-3.7825687233212038,-2.0489344969812056,2.005580163018789,0.5992116462402125,,
1.568725999999998,-114.04138657015967,8.097028912343164,-41.416569271494666,0.38733126605666346,2.9570365903974603,-4.074325295897055,-2.2342829059571403,1.8728063423337555,0.5552132099522785,,
1.5782449999999955,-127.93681826460316,6.928552315939496,-40.606972840078214,0.17962867557750162,2.8100943318695406,-4.8297642072575835,-2.234050670063718,1.6342251879744745,0.5250366498879393,,
1.587761999999998,-141.38925472958442,5.363236309266866,-39.63743158573779,0.06843463574650656,1.953602439018797,-5.508984879410233,-2.248751549045404,1.4870362600965854,0.48156095647339314,,
1.5972540000000066,-154.12315100527553,3.909893623817293,-38.584236016524606,0.36698821859695346,0.9217134376354416,-4.640968575139527,-2.154498975438378,1.3780287549379315,0.4160778449080241,,
1.6067770000000081,-164.32095362856094,2.9542291124941755,-37.819006308322976,0.8496237545737411,0.08514338909613105,-3.933908863125458,-1.7194793617150002,1.1102836035581756,0.2750336585188133,,
1.6162920000000014,-171.75585331852545,2.42087232138661,-37.73616495974719,1.216716646773399,-0.5886514962594236,-2.541201784578707,-1.2404384382603346,0.826467583755182,0.08635311792383911,,
1.625636,-176.1773091495936,2.2548322778948924,-38.507531097165725,1.6842127642425533,-0.6564121139372747,-1.2054847221699634,-0.7162528801882245,0.5198128980387855,-0.11827733265067691,,
1.635158000000004,-177.0871748072248,2.521986583185251,-40.104121438942634,1.4121583888165155,-0.7502889668941963,-1.5083392025586382,-0.10692686201802414,0.1566782572300327,-0.3121059335810051,,
1.6446609999999993,-176.35511264770207,3.4726020032218554,-42.19311110500289,1.0845036051667218,-0.3109870991554755,-1.5141523779364703,0.23547819105938658,0.04704345715839791,-0.4259469382779496,,
1.6543549999999954,-174.69043667335768,5.1734774036360855,-44.41933718878027,0.802889024463519,0.22104905665716393,-0.8536201121778337,0.4754601410990215,0.01990905775632828,-0.4708324269081345,,
1.6638619999999946,-171.83591692042944,7.057799698819289,-46.45379335447146,-0.31768423567581505,0.35459176356998795,-0.75897909286911,0.6675508953368111,-0.14011992226610562,-0.4681322188387359,,
1.6735500000000059,-169.94349216237012,8.628487623511186,-47.798641889517846,-1.2459591910793872,0.4292917494687474,-0.15756824783531445,0.4858585999837781,-0.06106244971663344,-0.3209421040122518,,
1.6828859999999963,-170.35225623435267,9.619845959024516,-48.11399239060942,-1.2046716537565099,0.2863811402134181,2.4392018385917815,0.09332097227600233,0.1929473715000175,-0.05016566398445212,,
1.6923950000000048,-171.68975141228233,10.071615403071627,-49.02218156942568,-1.0542699131088575,-0.25813409258956027,3.9719959040257287,-0.10321484031441441,0.25908522493737485,0.17774206965601028,,
1.7209210000000041,175.94524428285555,9.310213277247776,-50.7079546124696,-1.1453121118200333,-0.19230278881730062,1.9567916526548494,-0.6801903294663774,0.7598000955711613,0.4842771937064454,,
1.730440999999999,167.8866467836586,9.603362654939238,-51.740701913839004,-1.3050880579903779,-0.16378612719895946,0.7769910485828384,-0.9266155257836974,1.2951075781299035,0.49177187572043213,,
1.7492749999999972,148.5425076717194,9.380931570557316,-55.54368868474229,-1.7198538844922782,0.23889148807623575,-0.6649834548033788,-1.1182052019013222,1.479534793608688,0.3136161938025032,,
1.7587819999999965,138.55665513431353,8.549307159330043,-57.86480357977461,-1.7499575434205688,0.04732115068940297,-0.47150727836384454,-1.1939226511361034,1.5815786589095013,0.2695277794932643,,
1.7683119999999946,128.42783260714097,7.2030384033568025,-57.76278191755008,-0.848727416500911,-0.03720829030112506,-0.5367259463868072,-1.2975169525396137,1.5567449622566676,0.2982899852000563,,
1.7779820000000086,120.19784922653463,5.3918071052166745,-56.96533953316824,-0.18543881973877532,0.08853980524532322,-0.3518614569206933,-1.1881578903785026,1.1839608318588202,0.3401838319588245,,
1.787509,113.69757576890898,3.9296824573873694,-55.81015854424578,0.23634624973394802,0.04551276180418589,-0.1346287323245694,-0.9616104533234395,0.9183766100030664,0.33684075866591157,,
1.8062890000000067,106.93604290958628,3.63940592500669,-52.86599045486175,2.5654396958560857,1.2361354734804526,-0.19808547266851312,-0.1556727232304562,0.3180147796711463,0.3294545466787572,,
1.8157950000000085,108.37084583989896,4.846060581131212,-51.65238921749119,2.5791082872624354,0.9538775249428082,0.061592195221363305,0.36645228880523767,-0.07862636287966304,0.221693463617628,,
1.825490000000002,112.00148895225325,6.593634501232275,-50.84962530211805,2.8604872010703497,0.5328550625650577,-0.18353679591344416,0.7255603175896006,-0.34510450935003584,0.08817616237030373,,
1.8349939999999947,118.06274790085754,8.1574208138194,-50.059647598559685,2.808492829317827,0.022871004279653075,-0.7980460200396824,1.007500149465993,-0.7288139570491263,0.002199080768745386,,
1.8445180000000079,126.97683929162746,8.890522833919327,-49.35328432625854,2.3071696656043326,-0.2804390067182616,-1.1882054551366232,1.253099570913608,-1.2513740933863584,-0.12337907342620101,,
1.8540200000000056,139.08538227475853,8.809494866058712,-49.56779651242904,1.0459228088498702,-1.1751975935046457,-1.5082266476644846,1.5445442999033454,-1.8307867278822763,-0.4157349348348039,,
1.8636550000000085,152.86440831055327,8.24096181535289,-51.00485689866759,-0.649159569026774,-1.6257860872378875,-2.9012533028256984,1.6560310398073357,-2.17109829409392,-0.6953111038567918,,
1.873115999999996,166.49146391983936,7.662160663933134,-53.46695083002123,-0.9235187537370143,-0.6962790303475591,-3.1679193317199097,1.5636779519281965,-2.206917968532732,-0.8680861369664925,,
1.8826719999999995,179.94746410627675,7.871877525434381,-56.48202272751601,-1.314838136587328,0.1400361069008537,-2.6811647265431806,1.5664765163071146,-2.1621791322404063,-0.9650334215089209,,
1.8921179999999964,-167.69325176959268,9.187997794024483,-59.10917155531962,-1.5561967828991732,0.40966492374175884,-1.5452488339095667,1.526499827006772,-1.9308790849375719,-0.891001760072016,,
1.9017979999999994,-157.2312418648641,10.813268998332113,-60.56590179052123,-1.977258289730823,0.07774436767609587,0.8920422603121718,1.3171136776989243,-1.6204041989964273,-0.6545746092021115,,
1.9113109999999978,-147.45759764386762,12.169608625369595,-60.53659097707173,-2.7576214718827403,-0.5751305008797354,2.5082185186439983,1.178612194052974,-1.5364449853295405,-0.3839228350503056,,
1.920816000000002,-136.6674522119079,12.898829296554544,-59.12327180400288,-3.327104007536493,-0.8273951301683359,2.139918703011349,1.1854936170758366,-1.7497147257316057,-0.18658883527108175,,
1.9303150000000073,-123.97410264414309,12.558897180817906,-56.89834504972037,-3.017959754990025,-0.3968036121918322,0.9180968696171351,1.2554350691249991,-2.1380336774828534,-0.11615749009112496,,
1.939665000000005,-108.36057874029417,10.92679368578227,-54.81968032994663,-1.4490808162003186,1.0648911921228645,-1.1946744347499847,1.4486223381654182,-2.7150907788184897,-0.2225314450320001,,
1.9491730000000018,-90.36283734858378,8.239683445397157,-53.696433496928414,1.2796726287958042,2.538809595705647,-1.939368059361864,1.6423725821478465,-3.1956466376827946,-0.3769643958025766,,
1.9586790000000036,-70.50549625564071,5.307665334860217,-54.02727536754487,4.429676577197294,3.672566154490215,-0.7224640544205935,1.8592420110115104,-3.5316770746979786,-0.5346670922848429,,
1.9778419999999954,-29.62911769954068,2.7715764605304822,-57.6735826510563,4.560064546877912,1.5710279995862961,3.7865909938617213,2.1722012913880406,-3.449284338599603,-0.6099452000822609,,
1.9873479999999972,-9.79303953352116,3.953453436136737,-58.6395553665458,2.9142707240699477,0.48031606635860197,3.869643243630193,2.291245660338033,-3.245037414860947,-0.4244516767406951,,
1.9969010000000083,8.39692078460114,5.23002795272014,-57.790933951210135,1.3095248420302898,-0.2082927988907135,2.5840065332351188,2.1279197088533977,-2.9527927498448547,-0.123115336865253,,
2.006416999999999,25.1400593975029,5.380303444726095,-55.55460733839457,0.6363904443639443,-0.07387436873251935,0.8898521685928263,1.8591201962798003,-2.7728864758831766,0.13462941458850952,,
2.0159189999999967,40.8964349993392,4.197955028472188,-52.92939436424664,0.5051428059410716,0.6091421413789881,0.0998570045704232,1.6464344427331492,-2.6889011240896434,0.258955226376201,,
2.025244999999998,55.57306608786624,2.1280893455290406,-50.95940358624783,0.5451887690446497,1.1772459732235019,-0.40497053066544525,1.4843543473807665,-2.564755989079021,0.2301586073469262,,
2.0347579999999965,69.99447683346071,0.08059307532560374,-50.03047516042707,0.7210658778256184,1.2562273205232588,-0.3692065236702623,1.5220444731341718,-2.4871412700525797,0.12940396656290584,,
2.0444549999999992,84.80611091391611,-1.039673215931138,-49.75915678067476,0.5642197973100638,0.5310312212344294,-0.012254674592311767,1.7397862922885485,-2.4119733448934983,0.0788760795314833,,
2.0539580000000086,100.23357094478284,-0.8934495262899915,-49.67234348162125,0.3953776070988442,-0.8004676175315958,-0.1115408903776841,2.0190839934239753,-2.337132600869696,0.06937971496615603,,
2.0632910000000066,116.80082500788683,0.2519169378562315,-49.52417370392763,-0.17857022293075386,-2.668736458496895,-0.9026163185499628,2.3232590265366477,-2.3782375803598166,0.04800401881048197,,
2.0728009999999983,134.5346728505403,1.8940687199572628,-49.39348074677596,-0.6830565972908561,-4.067376853600498,-2.5537663466115164,2.5552397141233443,-2.4855740935291744,-0.04055655086588196,,
2.0823469999999986,152.78312017774581,3.6519283861664915,-49.59118681226375,-0.7431401991522861,-3.767346607830503,-4.212632665706807,2.6356200435226524,-2.5477331374327634,-0.21601392861221785,,
2.0918589999999995,171.00686570377533,5.457989226612229,-50.544923592760945,-1.1584222875563177,-2.280416352305825,-5.204140585698866,2.6094673597996634,-2.5586417759393556,-0.47909019846862416,,
2.101393999999999,-172.70036050000635,7.390031222845179,-52.24323954447295,-1.6597602702656788,0.18248678555119544,-3.9801994015096387,2.322980988516885,-2.293372023327672,-0.7026931348994231,,
2.1108389999999986,-159.09370427003068,10.047801292208833,-54.041454235841236,-2.4664917131114428,1.2612365538767047,-0.31704874213023476,2.039249078028738,-1.836947244964051,-0.7712530321569039,,
2.1205269999999956,-146.3232790886815,13.462364169926193,-54.98455047885601,-3.2770230074519553,0.7687088264388832,1.1914773221582207,2.00778772821758,-1.6430821061760155,-0.7088835913406838,,
2.129866000000007,-132.96808477241854,15.624292450857917,-55.37445078128113,-3.8484653275137215,1.0415119968963982,0.7713834427928541,1.8316861478966298,-1.878658468929086,-0.7490949948688815,,
2.139373000000006,-118.15474466977406,15.514902926973017,-55.71917095033433,-3.880014031609158,1.5790242896417934,0.21337213072204178,1.5982749449906144,-2.368066764624976,-0.8646605888734153,,
2.1488920000000036,-99.63636082610722,13.691471799993893,-55.5102533211405,-1.8751560470044297,2.312652343803392,-1.7054695436452922,1.7275137908671998,-3.1652585462388387,-0.8933537785274143,,
2.158400999999998,-78.05741352387581,10.570928793613044,-55.23982208982235,4.729821008979669,4.200175357453359,-2.232537851457786,1.8922049453446637,-3.827039475960445,-0.8546433695974118,,
2.167912000000001,-56.49337657154676,7.514096243934073,-56.78747635649489,7.521739883782341,3.3685711842365316,1.0150780736584386,1.8826926956959003,-3.8748051175851153,-0.9850113034831097,,
2.1775599999999997,-35.011931514330904,6.355832103068867,-59.4627244526634,6.732389301053562,1.4933404400128543,3.9573217845682986,2.0608084939743687,-3.7481328207186335,-1.0488442986535431,,
2.1870760000000047,-13.36401857043541,7.1035534921740195,-60.76393661388539,4.758140922626261,0.10302197369603215,5.987674221558264,2.2736748277563366,-3.659208334046309,-0.7654562256373364,,
2.1966189999999983,8.631438841447531,8.381935601882846,-59.32020702620393,1.6129004671206577,-0.42832327119303665,6.644977629681651,2.3983306495101884,-3.654789078030638,-0.3078443821601369,,
2.2061379999999957,30.881114414069152,8.058935713986967,-55.70384632257933,-0.7931206089433688,0.13146230309445306,4.704803234624288,2.3143822253071025,-3.753340271263084,0.07814980296390195,,
2.215647000000004,52.24999564800604,5.285554366589861,-52.24354421069248,-2.3958694942964667,0.07882694504674767,3.5925089470487714,2.055835576840832,-3.7599956616192904,0.18766244070471275,,
2.2251580000000075,72.51858039092639,1.7042924286133132,-50.42369300718038,-3.0094193257672806,-0.145661947123016,2.007065372784729,1.9772189691254782,-3.606704371855964,0.11314980683516,,
2.2346569999999986,93.475306435152,-0.836451085755222,-50.45395284027597,-3.4031568685454006,-1.265073876728045,1.1347217677230974,2.284686015301836,-3.555458529144493,-0.03770508313390851,,
2.2439970000000073,115.26475921435473,-1.0482953129721164,-51.67048442722369,-4.2990255174207945,-4.074340230381771,-0.6615186847870188,2.7087155659373128,-3.4191557762881186,-0.16890630784695423,,
2.253501,137.0721797931406,0.8454938078544987,-52.18311892120392,-3.8594460019258294,-5.739640596161654,-4.350017175247167,2.987296445199284,-3.2059905321043125,-0.09370112741864867,,
2.2630529999999993,158.913255822036,3.129358577076519,-51.24842583324329,-2.410197684747791,-5.5727576549040245,-7.422205291164951,3.0621179002036025,-3.1502871911913566,0.03321025424618339,,
2.2725889999999964,-179.18510981500518,4.848993350622228,-49.90859394698099,-1.064243820853332,-4.01762129797646,-9.271420492094874,3.0402031858232537,-3.1627433708130375,-0.040010581664731655,,
2.282122000000001,-157.32579107984688,5.87287999627973,-49.34336802597641,0.788880498972443,-0.5264982061188155,-9.69273385017571,2.976462932776606,-3.1879019760018705,-0.2970171561973475,,
2.2916120000000006,-135.6388244243228,6.347442858111314,-50.46165983383421,1.6909376635643971,3.228100340995924,-8.7836975054282,2.85252744877071,-3.241955920341154,-0.6833707456612697,,
2.301133000000007,-114.0544340037304,7.507942758581251,-52.30598513685314,2.924263582537886,6.157115906333969,-6.6323580507916535,2.8571355742292104,-3.2089082649258898,-0.8861405601369593,,
2.310570999999996,-92.37591479466113,9.39817362761936,-53.16984712897989,4.700245065617512,6.746138057764599,-3.9074173852221343,2.8973195572200003,-3.1907247946908424,-0.8089067742028107,,
2.3200840000000085,-70.65429868348687,10.967024030803838,-53.631995702542305,5.8633655619305065,6.811067379044464,-1.4551974039492204,2.8015731115023166,-3.25180713838374,-0.8602922611622287,,
2.3295439999999985,-48.85320811023119,11.347708964960958,-53.62973760495279,6.214152196178225,5.308206545639347,1.990326141162928,2.600271941647728,-3.4039071864281034,-0.8442471097771762,,
2.3392419999999987,-27.03675575468791,10.248285013188154,-53.54319655544616,6.006003145841685,2.825387557107291,4.50664760493186,2.372295139665699,-3.5824973699905036,-0.8013429142488883,,
2.348782,-5.370928141528219,9.060932925326101,-54.34377569894272,4.63189983208659,1.1734112792368243,6.425701632855594,2.3277329816695715,-3.596375617759938,-0.8860624305079876,,
2.3676360000000045,36.03072731684783,7.993378486986625,-57.12793398311065,-2.5159847690623725,-1.7456067634442178,6.5921700050794545,2.1252277614367667,-3.336608994701388,-0.8448014390151896,,
2.3771420000000063,53.43724477025374,7.555233221498186,-58.26872068968157,-3.7872552628595484,-0.9429190709684793,4.297659196179604,1.7719781761904043,-2.9657994147154274,-0.6981734820804334,,
2.3866510000000005,66.82263306575184,7.4597918659294455,-58.56012580933716,-3.4452639457743905,0.1481223666357981,1.4877133934617128,1.3755789379194847,-2.2735729399934117,-0.40826972929655037,,
2.3959310000000045,77.3833694727163,7.801372179482445,-57.28497661425519,-1.9751564434447124,1.3921937929345687,-0.24278360723960554,1.1708108144365743,-1.7395598188981076,-0.02617218095535744,,
2.414957000000001,93.9079976785506,8.5253927166776,-52.36860673708047,-0.5528612265116165,0.11951525216473335,-1.021234475625413,0.9102942817664343,-1.1281520717154023,0.31592054007990467,,
2.4245630000000062,100.34716045363194,8.632564235832218,-49.9426176480265,0.7236478057756008,-0.44117521321777653,-1.6174842753987724,0.8163063100783357,-0.9793738727845407,0.2929604619233087,,
2.433977999999996,107.50062560785827,8.426150221203175,-48.02895686538172,1.1997436281316707,-1.0265547572494291,-1.621301730215865,0.898355748572542,-1.0957425004019794,0.1702933042579409,,
2.4434930000000037,115.31945690974395,8.084439833124994,-46.95922228425448,0.9547526327819806,-1.5761424585651607,-1.7300849549249646,0.9963444442682193,-1.188166178229998,-0.010874164711302727,,
2.4531160000000085,123.5498438090499,7.862155047592422,-46.84697014083566,0.6481462611879681,-1.571332651577903,-2.162007691997132,1.082452687688121,-1.221894061288963,-0.20611306721453043,,
2.462631000000002,133.14449759505868,7.847863676718075,-47.45039142315356,-0.042523648346533265,-1.6635698657452915,-2.8569910022052194,1.292017888886706,-1.396965435018409,-0.3830632626982796,,
2.4721430000000026,144.79305482330471,7.847181526228788,-48.172335010097434,-0.7314660251773061,-1.5028860058521136,-3.2783920376710585,1.5513604773495502,-1.711813981039446,-0.4624718135430363,,
2.4816359999999946,158.11165026385913,7.857187563598289,-48.71335571019972,-1.2547441181389911,-1.1168268780279276,-4.2221453074212585,1.7536450124199994,-1.975156279246376,-0.4721091076169247,,
2.4911550000000062,172.70789257768396,8.163568159387072,-49.08884990576214,-0.992313144203621,-0.5343926949496591,-5.416190915100804,1.9480665642318555,-2.1403697885146453,-0.4819720183546226,,
2.500663000000003,-171.47479274140608,8.456227782345486,-49.29144913041267,-0.4008427265458595,0.1631860932539151,-6.235551052412268,2.0917692059057975,-2.333390898408002,-0.4979428021368842,,
2.5101740000000063,-155.61025938565666,8.33309523565532,-49.52325521882028,0.43745871586952106,1.1882073284565045,-6.124346682696422,2.025744559453761,-2.4017379896550564,-0.5097721967646109,,
2.5196949999999987,-140.9065350384146,8.05618081708741,-49.93750980131989,1.1695137723293783,1.7174342860335066,-4.284388082052565,1.8412032634437159,-2.258711142632778,-0.5020673986553418,,
2.5292069999999995,-126.45949475710789,7.906172576032748,-50.608285831370765,0.8884814464358711,1.4219438370335982,-2.6570626812484166,1.8077118446009124,-2.22202736928558,-0.5351952248100248,,
2.538713999999999,-111.54760606143884,7.980013012140698,-51.46007156178494,0.6778685389138634,1.6192675065262272,-2.401506265872944,1.8709174076118065,-2.289787599725394,-0.5821550024936981,,
2.548097999999996,-96.38762762213466,8.254029003795784,-52.10144123468782,1.061905300097303,2.1243142185135957,-1.5495814326187485,1.901913579234785,-2.327019754118193,-0.5562296535116141,,
2.557606000000007,-78.70219928434665,8.614354154557299,-52.34069062198959,2.459962396730547,3.4527308649003072,-0.5226230835366819,2.202398906489148,-2.724615336460396,-0.5668832739964287,,
2.567118000000008,-57.41998970121507,8.7503020615997,-52.15905736962337,5.239034062111486,5.384784179491525,1.328019082913858,2.600189560205822,-3.3142314553448973,-0.6073070231865908,,
2.5770040000000023,-35.554766128639635,8.012390019413402,-51.714042488266884,5.33688757256282,4.359414282296382,3.961910993870394,2.5555154796435806,-3.5002151579993854,-0.5501549783998358,,
2.586551,-14.056981355291265,6.731280968460404,-51.69516208105415,3.6761250669279235,2.171467710158275,6.160389415496567,2.4468031783013564,-3.5077950726368043,-0.5486337110322594,,
2.595880000000008,5.598163970710308,5.99865175264858,-52.16102735698976,0.9101837297147538,0.4813473366833433,6.953073753144996,2.297840513792121,-3.169086107159687,-0.5287197211009681,,
2.615080000000006,39.391908759648764,6.08130958129179,-52.29426212690383,-2.196335901297185,-0.5855074134533725,3.54286880166088,1.9958255226370916,-2.5126923881207297,-0.2911802931121588,,
2.624397000000002,53.031611712759904,6.6285502699148715,-51.3084448690259,-2.263596564176344,-0.5852630479623586,1.7627770494199004,1.7642560279639308,-2.0656724177813977,-0.10584772538137383,,
2.6339109999999977,64.3394548609501,7.226583675005385,-49.60310187265887,-1.322737485497191,-0.2659953549138411,-0.11708204003602922,1.523089053434137,-1.6571961893599154,0.06726677386595836,,
2.6432450000000074,74.76443495731434,7.466983009990478,-47.63276789775528,-0.5492935310383195,-0.4871169292505751,-0.7348130586974055,1.404617463716413,-1.5215274388205347,0.12653938867016642,,
2.652732999999998,84.78870312007288,7.235663543756865,-45.8627418503307,-0.016780803713611667,-0.8812223886970292,-1.0277178489582053,1.3303286002516501,-1.4814227995304836,0.09673709535156423,,
2.6622410000000087,94.93220671885017,6.625236701741877,-44.56938714096781,0.40349324602474684,-0.9315342627138349,-1.383977561166988,1.3336517768956822,-1.5167649934600416,0.013275515693421551,,
2.6717330000000032,106.36810446027518,5.812223091120871,-43.98832537208547,-0.10509750797334608,-1.4762902936364575,-1.4455576325382822,1.5163016082637364,-1.7052235470257242,-0.1320264155047767,,
2.6812440000000066,119.11300044715098,5.059255922380262,-43.99378232997163,-0.9419936307706464,-2.0810897926294967,-2.111172549576567,1.7231936904234912,-1.8722666681133282,-0.24277954389767417,,
2.6908240000000063,133.3727193506951,4.399599600666382,-44.11582076644972,-1.5851296827393633,-2.3475123249377483,-3.2226935914024364,1.9532996832132172,-2.0727548057767056,-0.259675541956147,,
2.7004699999999957,149.36313142356843,3.841182320628359,-44.17316175664833,-1.6179796050660245,-2.211839611098975,-4.4124339465100535,2.2137969431980906,-2.303476099729792,-0.2414112548470728,,
2.7100690000000043,167.0648731694007,3.509935303733425,-44.24862279660787,-1.217632444300013,-2.05025155566598,-6.28805583438416,2.4889161314249195,-2.5130916448553444,-0.2421608717393445,,
2.7195860000000067,-174.247569150172,3.215179097612087,-44.37703206682827,-0.09519296323892912,-0.9460060775908077,-7.743995968042274,2.631336091687945,-2.650720232069966,-0.24490946046436035,,
2.7289090000000016,-155.3200078984757,2.963114233168691,-44.73027045846473,1.0915961265321725,0.6320861147113478,-7.554874087885397,2.6610632453013072,-2.690102821701652,-0.27428212546156533,,
2.7384210000000024,-137.08904894490112,3.0601838832891914,-45.284713523592686,1.9530771517147392,2.034210786791436,-6.115198995041111,2.5904853483985653,-2.563881728964653,-0.30183077401132347,,
2.7479340000000008,-119.73839227566228,3.510362119821841,-45.93303763434619,1.8174535749071152,2.460066077542892,-3.8455348907951863,2.4899349325086733,-2.4155189856599857,-0.32787269695267707,,
2.757442999999995,-102.01330500349455,4.212756319549928,-46.55852400659549,1.370472823688333,2.6219493453797327,-2.848403417985105,2.549431030863362,-2.460988942869729,-0.36321061504149893,,
2.7668390000000045,-83.64021094319854,4.947882342386497,-46.98433251391404,2.310438287613187,3.654911502520356,-1.6303927790445571,2.617856848318961,-2.5718452988103317,-0.37826654507470325,,
2.7763419999999996,-63.3307806460589,5.605453942416264,-47.36473607595309,4.111457213792848,5.370973717972875,1.140833662192781,2.848178900706773,-2.8813193657384626,-0.44932900365402745,,
2.786054000000007,-41.584735709060936,6.065072090097253,-47.670382329585955,4.83142722579719,5.791704369392243,3.1830807691808727,2.9926524838566255,-3.1332676886000637,-0.503161099518222,,
2.7957350000000076,-19.832865894913187,5.874768331570277,-48.06409767566034,4.2912076756438,3.918247806913585,5.4377304411755745,2.878318446099321,-3.2379533527330033,-0.530917205048033,,
2.805289000000002,1.015314105835526,5.759511656089724,-48.95434528664605,1.9023405021126902,0.6065629981426812,6.985601665719531,2.7346268783541197,-3.1263860503373015,-0.599442927021177,,
2.814779999999999,20.204299843849302,6.152885019005231,-49.771037459984996,-0.2465067730929657,-1.1192506743858157,5.973260555078204,2.548367261207402,-2.849498968739353,-0.5607554220546679,,
2.824300000000008,37.548348004100546,6.574318423637772,-49.952987336134846,-1.921369711729182,-1.9099859776811623,5.288191150674203,2.289087401130859,-2.584811618570952,-0.4211103723074498,,
2.8336189999999988,51.14497095484351,6.79777007411133,-49.36566789274992,-2.1381406862971097,-1.20990723484198,2.063191286814024,1.7843445488186649,-2.032183127018321,-0.1999333455794666,,
2.843147000000002,62.02335676266145,6.604963828819494,-48.108478345172394,-1.6124182338284623,-0.3546372497740107,-0.01679566293007045,1.3978151481349623,-1.6514933374522187,-0.0031883746362702556,,
2.8526570000000078,71.82446395078216,5.924238594963571,-46.471052190547795,-0.9789745807397296,-0.07556907226366777,-0.3811919350558081,1.2232785584237091,-1.5255885520180197,0.1129605875446742,,
2.8619369999999975,80.16837006189996,4.932038694682729,-44.78155547868958,-0.6181231540325466,-0.3793599903222191,-0.8847729664754705,1.0213831403425258,-1.3274995748272216,0.17969544152605565,,
2.8715250000000054,88.20597751455914,3.748252937012287,-43.20194660295789,0.1659356309769228,-0.10340829906685887,-1.425010672168597,0.9901462165998899,-1.284791306091537,0.19402421010422172,,
2.880958000000007,97.58642029451094,2.427129970784797,-42.10883770066469,0.031675434586488506,-0.7758811034633518,-1.3255642902182416,1.2004248722439248,-1.4648677747729677,0.1172640391362239,,
2.8999799999999993,120.76935640503467,-0.2303237315564728,-41.59173738091313,-0.6288634249492188,-2.312080826766845,-2.3708699898267915,1.6775446915431294,-1.8483919323150617,-0.009127947688065107,,
2.9096040000000016,135.40710490480737,-1.5132677737987539,-42.11701165627122,-0.9589236400397995,-2.5468583934896207,-3.3521256692125267,2.012011225754427,-2.145439994657731,-0.05999410737136648,,
2.919117,152.7528762752708,-2.2392027966768127,-43.475968383570184,-1.654206040480893,-3.048774855495044,-5.326099432131082,2.448637792813052,-2.463802361138276,-0.1563401661096467,,
2.9286309999999958,171.48049253096988,-1.7863468153441555,-45.396070351796965,-1.2413731755776485,-2.180409470235772,-6.960201670728911,2.738233972499327,-2.558981807092004,-0.24937980507981494,,
2.9476470000000035,-149.57009998946555,1.801842086868304,-48.433550916082694,0.6217388813955218,1.573573565746257,-7.82842126442285,2.9543486754063175,-2.6493404057681,-0.2972308472270047,,
2.957160000000002,-131.0465147974816,3.8079232992507985,-48.91803156627482,1.5297768997109258,2.9896357460755403,-5.755754857671173,2.744931218826461,-2.5187550910823187,-0.27757200174769847,,
2.966671000000005,-112.86342122532571,5.308534349447209,-49.05039637543225,1.3271348739245115,2.9056453371525923,-3.4771294949441636,2.6063258184333558,-2.5425312542669505,-0.3155405168055603,,
2.9761120000000005,-93.53937447053373,6.355855919936479,-49.28110492660846,2.3188589583937325,4.0393112406795435,-2.854668646365888,2.673886728271681,-2.776281656363613,-0.4388639863806699,,
2.985754,-73.5743268651306,7.204129500011014,-49.92002136613669,3.9963872676248826,5.4353508696794774,-0.1900285852159655,2.700853462463921,-2.914082317569258,-0.5985481326629692,,
2.9952710000000025,-52.22880743884647,8.423219973428386,-51.19088751387782,4.625530678316677,6.00309635336601,2.682885708794355,2.876958533955957,-3.1170389185417022,-0.8326032143916298,,
3.004962000000006,-30.67496552134386,10.047210916399095,-52.73997527130933,4.49712350926759,5.28535514434422,4.614913462135924,2.8784539583271798,-3.1579763479257297,-0.9992356755499867,,
3.014515000000003,-9.184601375552049,11.149727188998076,-54.1745050375153,4.03959347317525,2.170638421993179,6.382227237204004,2.6944163556519536,-3.2691017414476757,-1.0754739477356365,,
3.0240129999999965,10.495481617696456,12.019590688445792,-55.52746400501162,1.80390200570686,-2.121387039492894,6.688652398357815,2.364008900933938,-3.057905523996603,-1.0597522373226285,,
3.0333550000000002,28.102754866194303,13.426880497662914,-55.89171060751638,-0.16377833964651486,-2.679813070674561,4.106623823087537,2.168743776133569,-2.684123171860928,-0.8489560194524478,,
3.042853000000008,44.16759735110481,13.545446605800258,-55.37868062556396,-1.0180795461135936,-2.1195131786990733,3.220976888140919,1.7851218241333429,-2.5687380775044932,-0.6481207334590476,,
3.052374999999998,55.89721359375219,11.938982968321211,-54.77421643521803,-1.7075544716705904,-1.0004199238690061,0.8594378131462083,1.0486515415918858,-2.0618180653847693,-0.3973848647922112,,
3.0617759999999947,65.44365401385258,9.547468042359768,-53.615817874201774,-1.3481717973609602,0.7864863861451662,-0.487029702533197,0.7112587370300147,-1.8026294396069862,-0.1248661262989086,,
3.0712900000000047,74.0381705160133,6.892707829173329,-52.31136401455529,-1.7511201989075222,1.0506728582915135,-0.01988022494865675,0.6023972397322513,-1.6792329887028346,0.014697329879553082,,
3.0807590000000005,80.71602308974616,4.6907069752437724,-51.08530785562669,-1.1384280131391125,1.0373825818095948,-0.8210857765163583,0.47891015998713604,-1.3169435349311318,0.11033384914008909,,
3.0902910000000077,87.42483324688406,3.355108448173565,-49.49347521912811,-0.49869313654972625,0.7098713135235201,-1.1940614160520915,0.6506432836777156,-1.201469522829839,0.2241745971180685,,
3.0996999999999986,95.16456473744711,2.947198237134174,-47.78569342027545,-0.44334128926177724,-0.05498405843824845,-1.12136856849648,0.961266965887233,-1.2152168087724844,0.25627437630831,,
3.1092079999999953,103.67211013687213,3.3533463889637307,-46.634294769424564,-0.13651270075207636,-1.1983971148137404,-1.6344556379053161,1.2149350987926166,-1.1929140854491542,0.13651639942158858,,
3.118797999999998,113.8530014435275,3.916093956121205,-45.270338776820886,0.10016587733201997,-1.7140464306636636,-2.053284706734506,1.4950935767707692,-1.383927182882336,0.1431682885558913,,
3.1283439999999985,126.29148222153889,4.165322289580351,-43.99622686815468,-0.19826079491758225,-2.1676207029613797,-2.5708839968676016,1.8025923093559284,-1.7097656113282251,0.07865383103335655,,
3.1378619999999984,140.80243658084254,4.3482554966134215,-43.8144697586782,-0.4385396246662993,-2.807114095629288,-3.7780852089923185,2.112511167005596,-1.9827188076419433,-0.17943135922037748,,
3.1473670000000027,156.92000835130065,4.355428294163229,-44.73255044660687,-0.7281115966454782,-2.6594015273687726,-5.315361839743811,2.3046934142109015,-2.244995828591706,-0.42746585067139387,,
3.1568770000000086,173.82641176038382,4.357983062202422,-46.6660130657012,-0.8067678865313377,-1.2794700697529102,-6.41844139103573,2.3575592008044333,-2.4150934373262385,-0.6414578806215488,,
3.166564000000008,-169.02576160714156,5.30874028177033,-49.31836117672081,-0.5321281646004945,0.23334138314349906,-6.4212039319684235,2.4300396646102493,-2.4156435907323206,-0.8163761283658753,,
3.1760730000000024,-152.61971134916448,7.215125002982183,-51.94500763940021,0.04020377040038365,1.692865108598545,-5.754209528158321,2.3645243244327485,-2.2839513860455325,-0.8805547731310556,,
3.185412999999997,-137.28053706375167,9.071355320161768,-54.28331124288508,0.029757878149716442,2.427120228327365,-3.52421618359167,2.1206280902378647,-2.2100778375175465,-0.9003661127709552,,
3.1949240000000003,-121.19634574650755,10.6170076446421,-55.96711671860513,-0.48046139123270626,2.379213550503818,-2.5781787391283357,2.0667103711715256,-2.4274240887968297,-0.8854720419320308,,
3.2043600000000083,-103.76678251569096,11.451926780438933,-56.689101811585864,1.189894246313239,3.016128858863118,-2.831012244558844,2.037165145240517,-2.7585681954085777,-0.8113467386133716,,
3.2138690000000025,-84.68170105933568,11.0522994771269,-57.19047180439793,3.2041294324510137,3.43320503144641,-1.5693410515152844,1.9780947594322082,-3.1843099843602176,-0.8451073898265464,,
3.223528999999999,-63.229730757181265,9.601400100308439,-57.6207016407254,6.566073514237061,4.313253278748715,0.42965025901256637,2.034562048373704,-3.715060252431637,-0.855204843070107,,
3.233027000000007,-41.54843839798854,7.589174872163248,-58.433446443199486,7.217508220738408,3.330860428866339,2.5893044927655224,1.9355761015176294,-3.8526991513101976,-0.8097311101475341,,
3.2427590000000066,-20.013162911411023,6.375739956764907,-60.277082537570756,5.066732246208387,2.2337036885911874,5.475036615831682,1.9755454282369818,-3.8056355790334773,-0.8890979544320473,,
3.2522620000000018,-0.016141379947054817,5.674841412449528,-62.01343514877432,1.6899670330803125,0.3748954006153073,6.913604909355018,1.8003663621744563,-3.555359056771464,-0.7645023841746614,,
3.2615940000000023,18.157788772211898,5.553420080256267,-62.684883550834975,-1.2264822909110251,-0.3008944092310574,6.149726079058962,1.6595277308256577,-3.219501211046959,-0.48935133598843095,,
3.2711089999999956,34.494417622557734,6.057633104639602,-61.86806132235616,-2.324882008021304,0.4183141693480243,4.121460638996681,1.6027798352227953,-2.834210131969001,-0.16845589004546105,,
3.2806110000000075,47.15950576893202,6.3390861165675325,-60.12079685197641,-2.5805203046512735,0.8550155064590405,1.540738299104848,1.2716298881692973,-2.1777193235336703,0.07462393904795848,,
3.2900240000000025,57.51741905259366,6.273704595241449,-57.79506982774248,-2.0207899573930206,0.8600453095706205,0.004550428054726093,1.0518958757171173,-1.7729481361258341,0.23661818148677988,,
3.2995379999999983,66.89667108259417,6.168189070816134,-54.8854041524116,-1.3220734620136134,0.6759571515697638,-0.5043461602258678,1.0173271880830521,-1.565635145963208,0.3778298139252614,,
3.3185059999999993,84.3802790576861,5.77232624030532,-49.7548319490895,0.06664397053735947,-0.05887837392451624,-1.28445250061578,1.0769293587380102,-1.3992493592278654,0.2655059337272029,,
3.327965000000006,94.47489699434244,5.545898479000089,-47.968837017972106,-0.09860447877295063,-0.9830606408493656,-1.1559221626634235,1.289135125277242,-1.5444407431411193,0.15741591793283696,,
3.3374529999999965,105.62847227200476,5.367305801026905,-46.548847422253345,-0.38758582459085866,-1.7185779426201238,-1.5763126694700194,1.4825124875084565,-1.656738818188466,0.07110782394167395,,
3.3469690000000014,118.25458801359723,5.185206536975121,-45.69722547262801,-0.6388529869074424,-2.3871426665711675,-2.2753709698690807,1.7184384726190969,-1.8395258604063522,-0.06260224217656174,,
3.356550999999996,132.66198988591745,4.909837753957436,-45.37231089376072,-1.008339391551944,-2.9587876491279634,-3.19267829879228,1.9734130724096408,-2.088896131204927,-0.18904294287545892,,
3.3661069999999995,148.34606377612238,4.524861007496177,-45.55330840277936,-1.216644101536968,-2.990768206470411,-4.784290938693258,2.1401349201268904,-2.2842247294511817,-0.2942327311429144,,
3.375798000000003,165.05393065912546,4.162422603972157,-46.343685361980455,-0.6960821138865875,-2.3479919343595723,-6.32974121980742,2.267193073052615,-2.447179882311924,-0.4104678638060983,,
3.3853069999999974,-177.33228117265335,3.902436439579053,-47.79169581368417,-0.17859759153977942,-1.1433237570530137,-6.718128397151797,2.3581059375775104,-2.610582953983514,-0.5356258769584801,,
3.3948230000000024,-159.73534659021792,4.238036048100921,-49.77482915011487,0.4372715389080465,0.5007103504672303,-6.802498245191798,2.365700404580124,-2.599483340934356,-0.6440144482842969,,
3.4041459999999972,-143.0337695974244,5.353204467177406,-51.813783565030896,1.0167460019099879,1.9938442492128061,-5.6422759009898344,2.278194564971391,-2.4418902977039383,-0.6848810458707829,,
3.413671000000008,-127.06882633427584,6.725819534712441,-53.66783164877976,0.7476050135275321,2.5301318735224814,-3.596561145338033,2.141940342966057,-2.364659933759317,-0.7050888639931467,,
3.4231670000000065,-110.64993336672416,7.866832315866723,-55.28356134996433,0.4642232994972574,2.745630710085339,-2.8042911976369678,2.07949276888041,-2.522063621865354,-0.7387606468612496,,
3.4325560000000053,-93.28915931745108,8.327096613201247,-56.62429162190889,1.5432041527150455,3.246315846373707,-2.273215252552578,2.002601600971497,-2.800374982598344,-0.7559844499776229,,
3.442070000000001,-73.92723441200637,7.899317481237655,-57.77910101570223,3.955648480837539,3.940905556848555,-0.550062539872558,2.0078122206267333,-3.272293167792877,-0.7761879207604498,,
3.4515829999999994,-52.37532388442895,6.607492807817768,-58.68023386294341,6.611776032718825,4.322312940321413,1.8254877081727718,2.0368175496676346,-3.774339008406191,-0.7232209221641294,,
3.461498000000006,-30.69129667166328,4.846003284106979,-59.86462224900935,6.357883777233015,2.9930313611587684,4.104366823878996,1.9081922121011285,-3.892328288207002,-0.6676369548639445,,
3.470825000000005,-9.17658837577672,4.007608912680828,-61.68094439980595,3.2568203979518104,1.143097671375008,6.524596955450994,1.9528038886963779,-3.830033328884266,-0.691962135980184,,
3.4803440000000023,11.562540806109816,4.5047728482494005,-62.99330701913899,-0.09712503195498938,0.2702580454025729,7.210679583505598,2.010137431971015,-3.622686473875352,-0.5681350389082727,,
3.489840000000001,30.54527165141346,5.4042404036429925,-62.89785602746751,-2.3563801452612965,-0.09086454204812187,5.948005428178586,1.8814238424407412,-3.291466959651411,-0.3093683206157979,,
3.4993550000000084,46.29112095135943,6.299654720359101,-61.24501795057477,-3.3305203692656513,0.02149385132301862,3.279322968249636,1.626477356648102,-2.6876995973645865,0.0073910101568920115,,
3.5088640000000026,59.34995993874692,6.778700112430137,-58.41566727387199,-2.5106440870839277,0.6542407011893582,0.7287099405421383,1.3882014035320742,-2.1978818253848975,0.2663114984033139,,
3.5182020000000023,71.0873281231994,6.54035328802619,-55.30925169174463,-1.7665550190147796,0.3075812582674892,-0.14444820224602428,1.236314005892282,-1.9806367206850566,0.3473290558496367,,
3.527744999999996,82.11911460263767,5.831835989351243,-52.345790760416676,-1.0478496062066223,-0.24735064094024242,-0.5425969882751329,1.182017220676397,-1.8561532996462753,0.3535795297652761,,
3.5371839999999963,92.89551438748506,4.899581317473508,-49.90715702831136,-0.367928223373686,-0.7369949134297351,-1.0754655041800432,1.2033682466381908,-1.7892318456681704,0.28513388292289277,,
3.5466870000000057,104.83164757154834,3.8620422013968465,-48.25129612624399,-0.22142532741508014,-1.488347633117099,-1.4469744377389226,1.4043728863997618,-1.9360428474123272,0.14785424898633148,,
3.5561969999999974,118.77813996802229,2.674555631468067,-47.202831487502834,-1.113505303467541,-2.5994260644821297,-2.0855366252516734,1.700075756688673,-2.221858380170318,0.049746726906312,,
3.5753190000000075,150.80485252317902,-0.011042209048250078,-46.96626516763485,-1.745738205823568,-2.7596043354628894,-5.318614846284167,2.0872548416473533,-2.621038653087213,-0.08270859918230514,,
3.5850190000000026,169.12438870108934,-1.3968246716086978,-47.740250202195476,-1.4060398573442334,-2.1860288290023244,-7.382816964212736,2.2820344401085517,-2.8837543327695365,-0.108595727256024,,
3.5945370000000025,-172.04745445485858,-2.488877686863643,-48.939541913265394,0.06823481377631085,-0.7094912829824059,-8.276211339554091,2.34206505004883,-2.9583713461328522,-0.11019977708314507,,
3.6038580000000024,-153.16266504760074,-2.750456877980545,-50.30632339510275,1.8907013312822505,0.7042703450877207,-8.13366012134189,2.406952479072783,-2.9105403183026612,-0.0984156087385957,,
3.6133779999999973,-134.93393409396066,-2.423159803028835,-51.65979350061957,3.229948789260498,1.9248867387715822,-6.888001259749272,2.34553793598505,-2.791467428473778,-0.10401404673818161,,
3.6228920000000073,-118.2781928201793,-1.863812269614967,-53.08251847252205,3.062994306337372,2.2733603747860207,-4.212941507443844,2.122527809305473,-2.571058756227697,-0.15813250250762945,,
3.632306,-102.41844181749282,-0.9622563080875164,-54.52743990301972,2.0843019851803652,2.0199786346944215,-2.6038143818586117,2.019344674258689,-2.4557496775821184,-0.20913154416964672,,
3.6417849999999987,-86.95222410559407,0.33492540197598164,-55.95448841729951,1.8163773628954958,2.293789170547935,-1.7401624072031636,1.9776264667031351,-2.3968467563311133,-0.26698982766844287,,
3.6512929999999955,-71.31240703138953,2.0311157254804146,-57.410390082695486,1.8298209880474465,2.922652578985143,-0.3054717847991579,2.0019112724754216,-2.4309595065590615,-0.3542800602104641,,
3.6608090000000004,-53.21255831153539,4.08182179446842,-58.56914941031962,3.6488131293201578,4.627955784654021,2.3605313400572805,2.2638636796513865,-2.853165352783576,-0.4232566096899686,,
3.6705479999999966,-32.618994529221006,6.282630402915077,-59.44099031247131,3.8396752105878895,4.9037126797060715,5.053081925870167,2.488815081332396,-3.2962774683446177,-0.5451192282804487,,
3.6800500000000085,-11.948989585765473,8.239210792329684,-60.33446998051215,2.618043691840871,3.0709056103865424,6.640481892011166,2.3954253209702716,-3.3577537200896432,-0.7001093763141674,,
3.6895659999999992,6.579991574802791,9.675334834995494,-61.527099137839194,0.9512289028651326,-0.35409596246249303,7.107769991656348,2.0301960837602264,-3.065369276337208,-0.8144755376884961,,
3.699073999999996,22.4349517586522,11.391858096219966,-62.64922061513381,-0.5857721343851919,-2.682042485350654,5.241474534007953,1.7632018477701306,-2.5987876601113444,-0.8037382134195595,,
3.708590000000001,36.12222572322069,13.139441170619625,-62.80817059344771,-0.998514772305435,-2.099339397640651,2.655216349224263,1.5368238446601414,-2.2210778759853573,-0.6140087906297527,,
3.718085000000002,46.52239709255136,13.159680412245748,-62.41640662711312,-1.4985649209431133,-1.1073446574979928,1.3991171344277804,0.9364442159973185,-1.7987275600485644,-0.3955257667349746,,
3.7274290000000008,53.226381643916596,11.371173258888325,-61.569175474255125,-1.810703628022346,0.26517613470865914,-0.19411811110893895,0.30016142369259446,-1.326119501464655,-0.11569086746291389,,
3.7370130000000046,58.31795240765975,8.656968931758197,-59.752056883332514,-1.5696644032796974,1.6567706338931358,-0.7739590889807108,0.018517926067461773,-1.1413879225430033,0.18633406372019076,,
3.746526000000003,62.194305573969935,5.759481804109132,-57.215426635901046,-1.3739433144799205,1.6815224804839592,-0.7598311368559757,-0.09182524553459905,-0.9597103221538287,0.4103099071314432,,
3.756027000000003,65.36136246182117,3.4732122963915173,-53.796585501519836,-0.3143047954683719,1.667269439592427,-1.512041871480353,-0.01917958900522612,-0.7802326339026726,0.6333363232805719,,
3.765504000000007,69.42045122392713,1.9188717801478896,-49.96932515889878,0.49197645313310107,1.3255929929957544,-1.6223311496670605,0.2564900656251867,-0.8308527254768935,0.7278084439309735,,
3.7750149999999962,74.53338855460733,0.6769304191936879,-47.20354795551824,1.3122823942579611,0.39188147119473915,-1.7174647742379585,0.49074978021399707,-0.9320077778347314,0.5302746725512222,,
3.793959000000001,90.87406843914125,-1.6687683966834537,-44.30818485375782,1.7810988176227072,-1.0963530950832905,-1.5162822361621233,1.2099301438505166,-1.55902547921689,0.2827713051657301,,
3.8034590000000037,103.6147085419914,-3.261686131038528,-44.040135303868304,0.31078585262338315,-1.9846911247604584,-0.9204082975858312,1.606535767178385,-2.0037842416567506,0.1632148673048524,,
3.812966000000003,117.922991646595,-4.895833073760707,-45.24377889932499,-0.41274509198302844,-2.4746279683052506,-1.8547402282510923,1.8043051432295458,-2.2394610730760514,-0.035961491166249054,,
3.8226099999999974,135.19515799196833,-6.446834028121876,-47.27314047249263,-1.76389790112609,-2.761776766286843,-2.9303010885201157,2.1563479846932716,-2.6990645702464193,-0.06154256922404679,,
3.832284999999999,154.8451105675958,-7.099840490377827,-49.93019046528963,-2.818519878665005,-3.0495427514389104,-5.1797641317926475,2.485875515993137,-3.0156638054381353,-0.06293271225771734,,
3.8417969999999997,174.50902602361458,-5.978930703738628,-52.580691321510564,-1.3965077002811666,-2.1286065366271885,-6.483859192645213,2.62080401624417,-2.91098654068919,-0.07724314869568534,,
3.851130999999995,-165.7224587539876,-4.021601674261402,-54.371564631731054,-0.27259504107508187,-0.9216899120744818,-6.039940675966079,2.65815755626478,-2.9371389350296804,-0.010050816812744025,,
3.860642999999996,-146.205782994868,-1.9640845071609347,-55.240962487405234,0.4987506385827686,0.6051415663394109,-5.836660937033907,2.5822351753698567,-2.9534385521399975,0.031668711766918656,,
3.870154999999997,-127.769957691907,0.08974008357411405,-55.3110760236446,0.4070880958250231,1.6246880572455964,-3.25961921939813,2.4372601878265137,-2.8009446070446873,0.046515068496939406,,
3.879678999999996,-107.21502468990703,1.9722212167416264,-55.18609079876259,0.8969610369907397,3.3060152249053014,-3.368273209577065,2.651806948709089,-3.1681765741183683,-0.04922652542260808,,
3.889070000000004,-85.42285506680413,3.5842687281772316,-55.33774764923109,4.2998900939761375,7.455653593719356,-2.634390983552318,2.7454313417142315,-3.399625209962275,-0.24142727881393608,,
3.898750000000007,-63.660462266361115,3.8185733952070433,-55.94600544980107,4.769845051532011,8.561573806136693,-0.35972503539382045,2.492362647683497,-3.5635485571925467,-0.40162106307781426,,
3.9082680000000067,-41.99543741462007,2.6136482341086835,-58.43097508229846,6.410969809148075,5.178000605253623,2.446140821337211,2.1470845203940585,-3.7700583657248252,-0.7350323206569571,,
3.9180020000000013,-20.35196303842213,2.7130947153847655,-61.93181821612144,5.644429781736597,1.1524431706455451,5.404029837275127,2.170405598653007,-3.747213901267535,-0.8940208288838103,,
3.927499999999995,1.3170218550802395,4.150862952008122,-64.16788687535986,3.049275008319483,-2.164384150243376,6.817852384841551,2.2169834353763496,-3.7326834150129735,-0.7021341485878921,,
3.936833000000007,22.74793767733934,5.854162537435706,-63.359973110777915,0.00011692660779617172,-2.586677036501487,6.443341864551065,2.192294302576182,-3.685715086783649,-0.2143627506313823,,
3.946342999999999,41.79266503814588,4.861850070652547,-60.06029280014731,-1.8169040927346265,-1.2024365658468736,3.3729780123475765,1.6261676618804233,-3.4366859062525137,0.2985599286079714,,
3.9559330000000017,58.09182729622798,0.30904205559794584,-56.53985316327316,-2.9496496104624006,0.47193291526665904,1.5925639529407571,0.9433760604198029,-3.2507679076150655,0.5526466899293813,,
3.9652559999999966,72.43567888933674,-5.97993026736746,-54.13658589049918,-3.1828067670028837,1.8601438239943853,0.48261732952026276,0.6019214105689291,-3.0734464331308007,0.6205360058808409,,
3.9747229999999973,85.98766774384549,-11.595555670440504,-52.68256894447735,-3.1678427011002177,2.135359221185981,-0.4782495340704247,0.7004999000624855,-2.8213969563953682,0.7044353359420431,,
3.98424,101.04890446827281,-15.044882614925829,-51.62045717825152,-3.7684967050870695,1.028629931526153,-0.9156736951842084,1.2585967567501977,-2.739081775642856,0.9063804813651893,,
3.9937630000000013,118.06857726165569,-15.685876097621719,-50.889310978142724,-4.232780523774542,-2.2954520568600145,-2.0138118941473766,1.9571695586144575,-2.6425838370928934,1.048298479178274,,
4.0033030000000025,135.79891339586297,-14.467314090324537,-49.06815006403311,-2.743039151752173,-5.137344443215136,-4.213861283617929,2.3901152345688232,-2.46970255708826,1.2852183464348275,,
4.012822,154.02718367108304,-13.864696397511237,-45.60561165718947,-0.6314416943483013,-5.169564346538661,-5.651471886319361,2.4871520279241706,-2.5220676597064977,1.5808833157653959,,
4.0223179999999985,172.92749121674032,-14.364820587737643,-42.395588184832576,1.2552284756913736,-4.140220687237018,-6.846414106123867,2.571863924176841,-2.6217007456034382,1.5599570522113324,,
4.0318340000000035,-167.60980205348588,-15.097607560225203,-41.131425547578786,3.479641561878624,-2.117137437126034,-7.947416603772037,2.714304240130169,-2.618644332492442,1.2415704828435092,,
4.041335000000004,-147.64726753595673,-15.801113343386817,-42.820176677944424,3.8643213428802246,0.43732080820438346,-7.422697140294816,2.76978740563583,-2.6793004358406307,0.7295619313891142,,
4.050853000000004,-129.3020907035444,-14.957667134344986,-46.79480819315135,2.6505360286801327,2.284237368240122,-4.875457422677637,2.6296096975928847,-2.375892156441495,0.18451495050311223,,
4.060359000000005,-112.40071403355854,-11.495661873024488,-50.618653805009494,1.4083722294662335,2.9040519136804224,-3.031164401427019,2.690655554891843,-2.020562302692286,0.01428741893424836,,
4.069754000000003,-95.61198905094517,-6.5082818159839935,-53.155642451449154,1.5417532565198833,3.777867598569657,-2.885446197481387,2.82964376176682,-2.000642458322538,0.02218221421877732,,
4.0792670000000015,-79.68716527008536,-1.582442306780322,-54.85386440621239,1.61055451790833,4.8559936559906705,-1.4085685729388544,2.6627121063163273,-1.9979904314681445,-0.11246183950544354,,
4.088778000000005,-62.82013360523073,2.226795721178763,-55.84304245709594,2.0040601818605115,5.330115961115768,0.4384079443596378,2.5435661350761394,-2.3481159859198026,-0.21542768078981445,,
4.098469000000009,-43.291014141988256,4.142557691063259,-56.640520146435996,4.223845821629449,5.392404706239005,2.849304501161665,2.485661592546961,-3.0351917706667138,-0.3753224715973387,,
4.108196000000007,-23.765222738716158,4.3466681084240015,-58.620048490133684,4.626779938069706,2.7879028026646973,5.367391239985896,2.122017897958134,-3.272005648365606,-0.6819271704335677,,
4.117705999999998,-6.151195690244846,4.250944358458109,-62.230495404176615,3.308765342617697,-0.9104605092972702,6.6144281912241505,1.7199348103639183,-3.0692444137948725,-0.9816417126458965,,
4.127032999999997,9.388061065196881,5.079968826569278,-66.28260154923868,1.522931746179887,-2.8876333962668244,6.503702696987335,1.4961932420100994,-2.722872413457516,-1.0594967287489832,,
4.136547000000007,21.128755529003698,5.84585463096486,-69.28720713045357,-0.606560884605661,-2.750452594194136,4.438562095626135,1.02652811245999,-2.109312565756666,-0.8233472180517742,,
4.1460639999999955,29.27731650795332,4.835162648822307,-70.44180164291602,-1.6197194458881508,-1.0504152267557376,0.5393887713301064,0.3695706667339148,-1.5949770055269585,-0.3826470760093342,,
4.1556520000000035,36.198706501111246,1.7878230540574356,-69.33772988738473,-2.364436575580754,0.9383674833057505,0.5148218978766118,-0.09651803387299869,-1.5089971666250985,0.14073383715006407,,
4.164981999999995,39.9727281547597,-1.7586838438076637,-66.37906909748231,-3.22328452949362,3.795877014350214,-0.03528696441196399,-0.37268954084018213,-0.9677491991413092,0.5918845704143294,,
4.174487999999997,40.573796421676,-3.6617123847998734,-63.129961225233906,-1.5672983607853757,2.581570661517061,-2.055146163318832,-0.293378735204605,-0.27128441669431813,0.6562316905600251,,
4.1839980000000025,41.786837786431484,-4.395810865703661,-59.11878652883199,-0.6043831589112917,1.1876058968100118,-0.5145787460339581,-0.011636067010140316,-0.2831882536507419,0.8202043954413897,,
4.1935239999999965,41.93460744624536,-3.8601502616947827,-54.14618093642242,0.5143455243941505,0.956062302284724,-1.3055393783766942,0.10594092548428857,0.03441205473650172,0.9977967763922344,,
4.203097999999997,42.63898425537399,-3.5916531206780897,-50.11474724814577,1.777911326218607,0.6117334468648142,-3.011209509713269,0.1289410552915162,-0.07806996347630506,0.816386799753267,,
4.212524000000002,45.8841355499366,-3.9050954016420403,-47.57567712896278,2.3691402057805844,-0.24738181270650833,-1.7908646742676961,0.3795559905098614,-0.5295281981949211,0.5507691728372028,,
4.222041000000004,49.450716089210914,-3.9128329670312114,-45.994790945409356,2.959456447506649,-0.5217497047154113,-2.448541302085342,0.4867961646372659,-0.5203257295395742,0.36513861317420954,,
4.231516999999997,54.62161548100439,-3.9767893932678984,-45.64121622998121,3.3355354657891887,-0.48682556750055844,-2.9583966789643044,0.7107349243097246,-0.7496755436654515,0.14198382716498217,,
4.240948000000003,62.041182534876505,-4.443132296001572,-46.67894047799268,2.6169606552580587,-1.7028929201030814,-1.6410565669334523,0.958966886523242,-1.1332830364478539,-0.09842948417177755,,
4.250453000000007,70.51284914477763,-5.00209333973919,-48.14977435571395,2.0236682089937603,-1.6832637876449317,-1.5249513995771102,1.0616692308398994,-1.3203083539000982,-0.1543121341120091,,
4.2599560000000025,80.5530604397169,-5.8150564094344475,-50.14030998063177,1.4408815023274828,-1.1700486611700027,-1.181385103471425,1.1863196871426738,-1.6200235368851614,-0.20805819873530385,,
4.269473000000005,91.96947143745811,-6.740979013383855,-53.320545736819746,-0.04792315394613514,-1.5695656062980599,-0.7190000434205337,1.262111333561098,-1.8983935159130294,-0.3847283333071933,,
4.288495999999995,115.60378335044494,-6.979629926185066,-60.98663781168025,-1.829285916449823,-1.078978768069418,-1.2877243885627099,1.2483315068672736,-1.9870757099117873,-0.46257242786976865,,
4.298006999999998,126.09678561936522,-5.71860264681704,-64.42761739632263,-1.9058787729129778,-0.23916734325001754,-1.2228413311425974,1.1811242695566522,-1.7400695054268238,-0.4547802795860051,,
4.307722999999996,133.55788827095108,-3.589091834340764,-67.15617682913108,-0.4515174599053722,0.9052259839340637,-0.18460097253141397,0.998882273067437,-1.1833844420949708,-0.4243543189850849,,
4.317244000000002,137.9712836128624,-1.08682259481523,-69.01414104296221,0.816351118022274,1.7444582220795375,0.9935647831733453,0.7941419982026384,-0.6321822811189549,-0.33577628641993645,,
4.326761000000005,140.0523194775342,1.4802941354397394,-70.311840353004,1.4611308191497738,1.9924307305066156,1.5783963146856412,0.6267531420139737,-0.21204428052646043,-0.26124569337552245,,
4.336265999999995,140.03960431142065,3.6821449934496515,-71.39164501290077,1.5937948152763173,2.1569803139681922,1.5506536344535553,0.41567323811464035,0.14702475831880407,-0.2161111616472886,,
4.3457850000000064,137.90733258564904,5.195337731033604,-72.56605426945518,1.0752781505031044,2.711145488334017,0.7368306549621386,0.1564279890746194,0.49844626713870893,-0.20210607223854385,,
4.355109999999996,134.79175086501434,5.9010078707191,-73.9572776072047,0.06126922169668311,3.1152659293843636,-0.0845827248740142,-0.04353221197544807,0.6351807003519667,-0.2182009715591415,,
4.364604,131.1128524652957,5.524945263173528,-75.03191861447915,-1.4559461328595877,3.4908138922779495,-0.08016096846337913,-0.26847518025595024,0.6860378306713222,-0.14176845229430884,,
4.3741250000000065,126.03206427917806,4.166331507022907,-75.0727669187721,-1.068854194501418,3.4732732472424264,0.16381003418885692,-0.5241116042569229,0.9091201589821436,0.07778934180307012,,
4.383717000000004,121.13582200047142,1.8108919553203788,-73.30823899924137,-0.7527932290928991,2.96407529234564,-0.22706802524770645,-0.7202497064471896,0.8135621472043248,0.40421709523368815,,
4.393234000000007,117.51222540684506,-0.956145728062467,-69.95765020419589,-1.2487160087015858,2.079500776827446,-0.41581367419114146,-0.7543176915528186,0.5141101921952002,0.6760131039891746,,
4.4027400000000085,114.22182921730383,-3.1571106636649335,-66.1948922266264,-0.6447839777163984,1.0912637903698725,-0.37247790167012934,-0.6545737496032917,0.4463523178162938,0.7295300872677157,,
4.412452999999999,111.69434898040623,-4.334496558356789,-62.93786814044404,0.6890492376202867,0.4229809769587457,-0.4474358724897734,-0.42970214160766323,0.3548464904351889,0.6189995918509295,,
4.421763999999996,111.29445658782318,-4.530611152201356,-60.537778248023386,1.2664584963140535,-0.3473937098778683,-0.4493200344188793,-0.07232577160723096,0.051743246391072154,0.47438942663758293,,
4.431194000000005,113.03795191037253,-3.9846776721681834,-58.77859567682683,1.204950969813528,-0.5100329329618126,-0.3990789008202666,0.2702399972676515,-0.24518084268380552,0.37811655217152784,,
4.440724000000003,116.79213735255522,-2.66749467882004,-57.917865615615064,0.7902776161964452,-0.45842273346034074,-0.6097793380877489,0.6182289028222515,-0.5003691284634872,0.2158534510041743,,
4.450227999999996,122.63259675319793,-0.7475221830138181,-57.79202289138145,0.26952316544493515,-0.8956715583998509,-1.343413458032049,0.9471328438173284,-0.785237611455462,0.05997031576342178,,
4.459804000000005,130.9399968423288,1.0150955297938453,-57.517163142252954,0.20698782582444464,-0.8572598162327225,-2.0641330152457877,1.1875205617000408,-1.2166046706248406,0.051014504050294944,,
4.469307999999998,142.28385015508343,2.1716967132805984,-59.08858316414471,-0.3356359502112085,-2.019941682871179,-3.7858827158732193,1.3582674688761016,-1.833540283977079,0.011655714800307268,,
4.478829000000005,156.40951471542346,1.7086320179006704,-58.66427121090412,0.194112657675281,-3.815687540446228,-4.759449835806973,1.381840176716799,-2.4670533555921392,-0.011202163867629022,,
4.488333999999995,171.11788698486967,-1.41427902962342,-58.78535263375636,0.7932107345242019,-3.9396619331690275,-5.080428189315887,0.9972264992607376,-2.8397152481306582,-0.031666379676363134,,
4.497764000000004,-174.9090154231945,-3.342283234735411,-61.11361862002337,1.6396499916079623,-3.2046759984912465,-2.5440990870301965,1.0671155256638334,-2.611700602191822,-0.34777563676899365,,
4.507343000000006,-159.89490886033715,-1.0504602139374564,-65.36583076570189,1.3936326648192878,-2.913128282806533,-3.355328225243248,1.7601672174945855,-2.476841670033243,-0.7312028022792759,,
4.516866000000007,-145.80558840780256,3.649500477428274,-70.46273658750225,0.40473530686677595,0.1362577927278491,-3.574676698750681,1.9290186045636595,-2.2623472978560843,-1.078704361861914,,
4.5262929999999955,-133.34722624545716,10.216179356522671,-74.50875946224387,-1.3009408411834316,3.4592538702331965,-0.6219744213546268,1.9953650937911245,-1.9688996339090619,-1.1071392145807093,,
4.535803000000001,-118.19078012076073,16.55106442610212,-74.09221238995863,-0.8691753913323742,6.581144197224579,-1.2289771198356427,2.013169550759314,-2.501874639677696,-0.6196792668630782,,
4.545319000000006,-102.22108444216686,13.879598657951824,-70.88468864526497,0.2583197124027874,5.271830519485921,-0.5179347226048695,0.4213473598676807,-3.101700206553363,-0.2010288789056181,,
4.5548530000000085,-83.86004465888054,6.579720939241337,-74.01290868427174,3.989001676514191,2.820698298770248,-0.5038173255590491,-0.2900836225192284,-3.890129863833361,-1.2738240786884056,,
4.564373000000003,-63.210249916201604,3.1378865783576004,-83.16027539302426,7.332457478464991,3.3687861978394285,1.5932078862370929,0.14760201341427176,-4.179885136617897,-2.161525570910344,,
4.574061,-43.77587873221323,4.562670304855964,-90.06243894635067,4.944244324842741,-0.16945785878654274,5.334638128621027,0.512150849594209,-3.8624923396893966,-1.62989813727481,,
4.583608999999996,-22.71888991167365,10.252754226019265,-91.50035944289034,3.429006466576468,-1.3658482339007367,4.907387419910627,1.0695612640941894,-4.198540801933192,-0.8282339725860222,,
4.593112000000005,-1.6328493274043652,15.859375037736523,-86.10725962406183,2.066749025681111,-0.8887065567200314,4.931746228498465,1.1953327567248653,-4.089616388333979,0.11310221989164833,,
4.602629000000007,17.205357380205815,15.810914939649017,-76.13303442184639,-0.43753654089343624,-0.21779361851125448,3.197459898689073,0.5507470601469765,-3.5868772682084176,0.9510348747888616,,
4.612144999999998,35.648701306707146,10.3875970322709,-66.23900430735388,-0.5892687460905799,1.7053068803578466,2.506358460541879,0.14151600353524793,-3.7539350849438544,1.1261337904310482,,
4.621652999999995,51.810785120890586,2.6151587632373987,-59.68656717580165,-2.6041183130706616,2.498374936590324,3.7096568303515665,0.0857692208200643,-3.5698008088874844,0.9348856436611233,,
4.630994000000001,64.30689732421338,-3.703128229264841,-57.190665409592484,-2.615348229853468,2.7714078902997943,0.9459377847324215,0.23651200823238233,-2.79281504966008,0.5212059013875509,,
4.640498000000008,77.3350735232188,-6.080338339359767,-57.06307239381573,-1.434467232740016,1.5971689535296334,0.06239657037613512,1.012753578046744,-2.440342838482112,0.24795409464017382,,
4.650067000000007,92.04690402377834,-4.735408202291708,-56.79349505879735,-2.1603673478156336,-0.6486720846217916,0.3849133936064388,1.8247350133661475,-2.311304026426968,0.3312629333982882,,
4.659402,106.39004215271989,-0.8533378841587483,-55.29876519819519,-1.5898239307713808,-2.4323941719432067,-1.0139054901066342,2.243915168387987,-1.9477867265275892,0.43755395559139065,,
4.668900000000008,121.6918221813156,3.4311369483327985,-52.26681761779059,-0.676817074426539,-3.657154677575473,-2.5002199398872036,2.498363361787751,-1.967714377908719,0.5341983161326771,,
4.678533000000002,139.0987507599725,5.944626912287923,-48.166655893368436,-1.120535492763415,-4.889624778208954,-4.867741874264342,2.606618807657504,-2.3497214616780897,0.5297308582899855,,
4.688223000000008,156.64568467034087,5.631030541655714,-44.655198065620574,0.39938343780341645,-4.058502321685884,-6.217814467186022,2.3644889100221564,-2.574227462779316,0.34345021409315035,,
4.697726000000003,174.21675000140897,3.40345737947109,-43.91522934621945,1.5969147336173415,-2.829006075194818,-6.134316614918519,2.2013450690737613,-2.7653049329101487,-0.13005327930897556,,
4.707245,-167.8378476100428,1.9692855806184004,-46.92364764403325,2.028321537512678,-2.1259333776004037,-6.23649324775194,2.3164001903880256,-2.756398692477004,-0.7658373508535609,,
4.716572999999997,-150.6922602935381,2.915421149904476,-52.6339511501068,2.005482130714629,-0.6002667225955826,-5.487990359150953,2.3592939975108576,-2.4982334753025657,-1.2810925738272727,,
4.726100000000002,-134.2704887478657,7.101083374130616,-58.72170385373744,1.3947636735113813,1.3000327674007508,-4.660735004053544,2.536340478363557,-2.2374461637254326,-1.497077939887087,,
4.735605000000007,-118.51925841921583,13.861543533395189,-62.64496746160646,0.8425773305409057,2.941376860029203,-3.688353605796474,2.693459746148411,-2.047486777842997,-1.3536379620721026,,
4.745036999999996,-103.05412931008591,20.763106862769526,-63.75757515320094,0.4268450896729109,4.269368368254063,-2.09345198812824,2.560013677742924,-2.0210387990279592,-1.1429957767081609,,
4.754503,-85.71746289351387,25.197936953279925,-62.434865159331935,0.6249927062638974,6.967173187765559,-0.5568357401612247,2.231737964044503,-2.451148653706005,-1.092366567337864,,
4.773528999999996,-45.576446984981956,19.45441631474719,-61.91574906742772,6.422896988274516,4.746582484869578,2.648137027203401,1.1117649281164226,-3.8168815125584343,-1.8339495855037264,,
4.783263000000005,-25.34278957430475,15.469453105031917,-67.18049024959699,6.1033222861634355,2.3444188593108444,4.905953619159624,0.9494633933387374,-3.834370081868815,-2.259799545267397,,
4.792849000000004,-5.923414883401968,12.607108977007721,-73.87476302282359,3.9322939535869974,-1.6043943123931268,6.289163478255063,0.7235321081814263,-3.7515342852311386,-2.2713543227773196,,
4.802273,11.799064315963399,13.097595642118394,-79.79874518305688,0.12250861292383665,-2.410163558872682,6.734347778092447,0.8837002731598282,-3.3504203859577752,-1.9665275211542081,,
4.811774,27.775769630090167,15.515455277764072,-82.6256293885722,-2.7167717977425725,-0.586147400194112,4.392983209533395,0.9493732856207003,-2.991590361853463,-1.3531533040665449,,
4.821114000000009,41.02287154411415,17.93698033766032,-82.07517297110124,-6.151147343832129,3.516580931649147,2.9504968416153927,0.8166220413533599,-2.4536028703851596,-0.6538050907623827,,
4.830622000000005,49.35842795651283,23.284092966888956,-80.63208670726925,-5.786493218399229,4.301905790640518,0.05001986262856697,1.2916256219971431,-1.3842499089255298,-0.29967858294572536,,
4.840207000000007,55.35202553813344,27.454046482723168,-77.88846690983759,-2.1234256317774753,-0.03465982755507146,-3.730012782561,1.0217851280580053,-0.9100433354075705,0.034185326478373454,,
4.849638999999996,62.741489769515475,25.631987326326378,-70.32042408300717,-0.23854735620691775,-3.1675152718604123,-2.788943342670572,0.012265980293849526,-1.372858795227481,0.8523829988698862,,
4.8592239999999975,68.28185651579619,17.43692070068728,-60.113623588661326,3.3072070750613185,-1.5206808653518995,-2.172205068305253,-1.0565176020211888,-1.626083598392522,1.6316713694856877,,
4.8687419999999975,72.34244097001027,4.4988311568973405,-52.40584784514067,3.5009966933949843,0.20148477438925183,-1.0805063597171163,-1.7101772856972035,-2.1046455936916924,1.3816156833296545,,
4.878433000000001,77.10331645349574,-9.374400767989037,-48.17305124404191,1.7057210538827505,0.004132438741657863,0.41208421384071925,-1.5262486263847765,-2.5088889641287806,0.8839748103322975,,
4.8879030000000085,81.92749430859281,-20.749982228681812,-46.01294213300567,-0.04588455884866273,1.3600987143289818,-0.1925987577590475,-1.0315765923464872,-2.2344937697673553,0.6825949431316669,,
4.897231000000005,88.34616748044691,-27.19370542447024,-47.101320263447974,-0.14149424801511898,2.0457244419780625,-1.1090331146682257,-0.12804723178488892,-1.7393500818290946,0.3050513919003449,,
4.906742000000008,97.56611897357718,-27.409558631424726,-50.10634069474732,-0.6172131862084913,0.42079014363655765,-0.7426445957612561,1.0520196693028803,-1.2587912775210632,0.24600022676259292,,
4.9162139999999965,107.95454837127043,-22.602711924287856,-51.180820836966056,-0.24546867966730626,-1.1525908567201923,-0.662737537821905,1.9376570621849512,-0.8490112522027444,0.6648001748797738,,
4.925719999999998,119.93016272019342,-15.907354238223729,-49.34640371186396,0.3380805133677137,-3.000585393729906,-1.1545970431470944,2.4756190375209006,-0.8877501118003717,1.1566903963604094,,
4.935235000000006,134.22415319893318,-10.736783328730498,-45.48489038294236,0.5712431192133479,-4.546868530127505,-2.544059543577033,2.6447300016146174,-1.3545953835676963,1.4284432184312403,,
4.944827000000004,149.89516781382173,-9.056288833238531,-41.66791799088691,1.2750643654874063,-4.205172041348983,-4.383693081118317,2.4706924123355796,-1.8889801791757603,1.2988270300717326,,
4.954335999999998,167.17731780277973,-10.313831444853133,-40.860790605990445,1.5928817260159691,-3.2946950421594714,-5.862246456318033,2.398870387001506,-2.4373065371368225,0.7424596726692363,,
4.963842,-174.9890452729806,-12.560768956997611,-44.50234560768731,0.8450860735603942,-1.313856756548166,-5.04381727912663,2.2695631504170697,-2.6999244273055765,-0.01549265798239218,,
4.973357000000007,-157.73650806784445,-12.679451064277961,-51.5850338173297,-0.1867134428681381,0.7987250431990056,-3.85574093001857,2.235643689386305,-2.5218606193873327,-0.6534136296556182,,
4.982866999999999,-140.6573911632696,-9.066452744578328,-58.927332230269,-0.7126381896838484,1.96711762383772,-3.8500427617430915,2.5042799934444897,-2.3502799268799874,-0.8140082530201419,,
4.992379,-124.41475454791919,-3.339509348227756,-64.1135951725037,-0.9438945742142898,3.110806567999838,-3.33520725588272,2.5437664904425548,-2.299648969209882,-0.6790040173707549,,
5.001817000000003,-107.65519355248968,2.2312227993679623,-66.32133116394196,-0.9159925677861956,4.4334183898536175,-2.917804559789615,2.41268070372427,-2.583220616565355,-0.4058852287760664,,
5.011508000000006,-88.29560029222473,5.145262830474612,-65.08050301274295,0.8497322225778883,5.0415562858332486,-3.110255169774549,2.118522767533187,-3.2878321502682466,-0.0032279328159542293,,
5.020983999999999,-66.87507518696044,3.218675024453276,-63.29543899683578,5.536107185624394,6.294217713946333,-0.9523476178885911,1.519244289084772,-4.016787389505906,0.04038821142887787,,
5.030298999999999,-45.08441774294689,-1.3887876846239022,-64.71551799371778,6.646535287552508,4.810199224265552,2.190913110715987,1.0934252663437474,-4.322009957628953,-0.3505663216579439,,
5.039998999999995,-23.21143672693139,-5.683754187080374,-69.25223193885226,5.459298227957494,2.3546686951718163,5.151476654318437,0.9278449776480185,-4.3570818352786205,-0.6267974189083565,,
5.049537000000001,-2.506635324711649,-6.876636717579643,-75.0938699532629,1.9410811920807074,0.18118330173336192,6.535425189594073,1.0368842797921491,-3.9960646470878376,-0.703461749883786,,
5.059045999999995,17.252600014829177,-4.865429563253023,-78.93238796905172,-1.1008879907643438,-0.0038180374685285287,5.6128059134540464,1.2730656767919417,-3.7458476093993505,-0.3561822702265706,,
5.068647999999996,35.63057288499855,-2.5463179690827595,-79.28167891890125,-3.1523117754102206,0.6173959752366729,4.0366047996925625,1.1461389604554055,-3.5194307358937604,0.16852238210544912,,
5.0779679999999985,51.447684150779814,-1.7410563469184699,-77.05611970833388,-4.328498599023646,2.2261728766440894,1.1242726445656477,0.8058693891944682,-3.0652133161634696,0.561234151985838,,
5.087474,64.675889243834,-1.4316731615363085,-73.79310073591941,-3.040161534843,1.46320733575076,-0.5007413943407114,0.7262060821803978,-2.5473777589541764,0.72376169539027,,
5.097001000000006,75.56393634380795,-2.9595271363923916,-69.58793848008945,-2.0721751634241037,0.09533946754445961,-0.8267499962294552,0.39502288993470286,-2.164622375651642,0.9229784765324666,,
5.106468000000007,84.55816554693612,-6.396006028823469,-64.63955810358651,-0.5844691202749053,0.17503772484328306,-0.8911289060370254,0.06561096968878988,-1.921597361366136,1.1354760862247226,,
5.115986000000007,92.3527127235019,-10.845078658823518,-60.87947977452326,0.3457928813360723,-0.7642819649724202,-0.5772063930267164,-0.08437661007814776,-1.7798393737838858,0.9854697914444712,,
5.125477000000004,99.43556539619603,-15.356148771282843,-58.50858958427843,1.0378547404772689,-1.800276336803633,-0.2128084240909287,-0.08170452717346689,-1.6482517434951338,0.7955329619189493,,
5.134996000000001,105.61752411859369,-19.477494537649115,-56.81389686252254,1.5734781192591998,-2.801525118302937,0.21398338429365563,-0.06473423496711997,-1.4391934544184106,0.7095319507633829,,
5.144500000000008,110.60240638801329,-22.633370173772928,-56.03064971951877,2.0743197620354055,-2.9460495326204876,0.48001392036177315,-0.010990492687862648,-1.125405574307915,0.5153757608234913,,
5.154058000000006,114.21208730421249,-24.222842583103095,-56.196177845646666,2.2514100752802997,-2.929062001899671,0.4079378752446057,0.10556809955449342,-0.7278853407451612,0.2542411434675464,,
5.163491000000008,116.6982068607684,-24.12170014688791,-56.639352828644334,2.0718327657819047,-2.279129922179011,0.16352292558772277,0.2680240154352771,-0.36709119717680416,0.11507958698909701,,
5.172995999999998,118.3082313729942,-22.36645486847069,-57.198978589475104,1.5614369814587823,-1.4933460274480406,-0.14624174459671055,0.45613824768374783,-0.05632597125641229,0.015134734090904952,,
5.182508999999996,118.90875705135988,-19.51445561766432,-57.63644448677937,1.2064879639563628,-0.9483335834397806,-0.5816775323760068,0.5416922529402086,0.21292699185736078,-0.044662511583593766,,
5.192037999999997,118.69102932367674,-16.49167614512276,-57.696185303148795,1.002299702914567,-0.3891777334130517,-0.8296206343976293,0.4892821927956026,0.3587847028792278,-0.025497586309084715,,
5.211055000000002,115.80512501486815,-11.87871002915652,-57.47272738974664,0.9525107787424916,0.015122027533698254,-1.2573334753580077,0.13540280913227704,0.5200698272327979,-0.06411152933768921,,
5.220556000000002,114.09405948979669,-10.76931157200647,-57.66539884674029,1.6768464954929303,0.39216096165384634,-1.1711245869212703,0.007352577374323816,0.4026383381421342,-0.10586860625613646,,
5.230058,113.69165279781728,-10.134108119122331,-58.84744942625854,2.4158311689094623,1.3538161787251766,-0.8307102235398837,0.06645662714833767,0.13428716997944748,-0.25131268912981675,,
5.239575000000002,115.4722222429421,-9.118805029078278,-64.07735861628014,1.8532570842584006,1.5107385443278845,-0.8818720657200779,0.3426506789212963,-0.21778351323235573,-0.5814693127123886,,
5.258583999999999,122.66411965970713,-4.825454963791675,-76.93312994828833,-1.7752868576805354,2.994310255281389,-2.0798386878371584,0.6903522409467184,-0.5825049828076934,-0.8555430743116524,,
5.268112000000002,126.0719788541228,-1.6640077641056297,-82.49204758334824,-1.6012044008579434,4.294369176956061,-2.0528122119142007,0.7360655021171614,-0.5683359532349972,-0.7341327814283836,,
5.277612000000005,129.29266089071487,0.7934904109067579,-85.85171806667486,-0.8439952701926238,5.112416140579111,-2.1070352967410972,0.5458159298056164,-0.599918128369459,-0.318162216714454,,
5.287126000000001,132.9691360126223,1.5764924922911399,-86.75153115297262,0.20455269547413757,5.396560966626798,-1.6269361273970833,0.1920643213882519,-0.7274564769180658,0.17882191684419782,,
5.2966320000000024,136.79994009463005,0.8738481208722801,-86.66942156956733,0.21041437039413224,3.836309324614232,-1.9617526003773045,-0.10978079963562933,-0.7717881528678946,0.39769723124393713,,
5.306148000000007,140.14169605197407,-1.7505105262382799,-86.5703714712092,0.5408278813037859,2.4323242579404987,-1.5392408113056055,-0.49766394731451663,-0.6899287431775167,0.4431651952206298,,
5.315652,142.86129297119194,-5.321493480006615,-87.26152787651033,0.9739500000710105,1.1512414820537349,-0.935391208523681,-0.6952265740242171,-0.5685179470115453,0.31651084898174703,,
5.3251690000000025,145.5730535848644,-8.809534533469042,-87.00423331032934,0.45976827593392117,0.31162235344643774,-0.985764373471835,-0.6705168255103041,-0.5730889092656639,0.11832184314950198,,
5.334878000000003,147.97361165156633,-11.197208482601004,-88.05144211001992,0.7474605651137252,-0.24016359955481967,-0.4185887964835007,-0.4572186513554609,-0.49347055757475927,-0.12610045134524156,,
5.344372000000007,150.46298358273808,-12.252914125755686,-90.10089758060421,0.5703644814857678,-0.8353892061937774,-0.3835757276213858,-0.20351337781725143,-0.4912984359166107,-0.30898090264291894,,
5.353732000000008,152.67850894175433,-13.036125873961133,-92.20284584655793,0.44329315562711963,-1.6185462101961419,-0.09650749391747687,-0.16552136472045756,-0.42952555894492583,-0.32369364810962203,,
5.363408000000007,154.6027259560012,-14.956566355072567,-93.43765799313762,1.0274751584991197,-1.8682618977007532,1.049363696227097,-0.4024754601413362,-0.354403515275851,-0.15400239908647978,,
5.372922000000003,156.6143704818031,-17.486205791476806,-94.03329749942105,0.7296751476719927,-2.2231426870955207,1.4700313077037084,-0.5306326500991339,-0.3528758980062018,-0.0067115905376565295,,
5.3824340000000035,157.86803993852942,-19.267095524712005,-94.53248409524674,1.0071681315887782,-3.3273461267826923,2.3786362253871896,-0.37340789260171503,-0.21087515795383394,-0.02080578110095394,,
5.391762,159.06678800915358,-20.386815923783228,-94.91520340878928,0.6379407820753643,-4.553593033082279,1.643980602138978,-0.24205118374608525,-0.2065131577470312,0.004775039498667458,,
5.4016380000000055,160.43791441844297,-20.43379149390824,-95.2932667567195,0.5108856965334563,-4.539807577868871,1.6761265225712259,-0.03225923558682515,-0.2553841226117857,0.020032817840181513,,
5.411144000000007,161.6724755109334,-18.7859143577825,-95.79449195533742,0.7189284333112682,-4.012250584971937,1.405875994052158,0.30593729846449547,-0.2635972588062052,-0.01739343311774793,,
5.4204579999999964,163.4521446133551,-15.366581535234792,-97.98296396581439,0.33397329907952505,-3.6571842449320013,0.09531181361709148,0.6326278841772807,-0.42959811106787166,0.0034276878060301007,,
5.4299800000000005,165.8736481451961,-11.217127482185349,-99.57119440084286,0.4057786087682115,-2.4937881521444316,0.04040866232038794,0.7410503474138191,-0.6031033263004392,0.10116523772787693,,
5.439578999999995,169.05154306785965,-7.043714114786573,-100.480782286147,0.2200375964699997,-1.0560444585654845,-2.0187638559687198,0.7035361381712822,-0.7731971117171436,0.2127176194700045,,
5.449069000000009,173.01736474844057,-2.5144776256624963,-100.94491644832793,0.3337232484349322,0.07418316942705826,-2.2924421853734995,0.7314321086781637,-0.9556388735430237,0.2697136656571949,,
5.458580999999995,177.82067277306456,1.6604439163593596,-100.85333209330092,0.4819897324406422,0.9319685165382284,-1.7028005256498007,0.624451659957265,-1.1105012593545176,0.31929360239342086,,
5.468008999999995,-176.5783266375228,4.91838287173278,-100.37979126425223,0.5896469385986652,1.5891452425332337,-1.883864346670094,0.4184080331833005,-1.226109774110338,0.33129297184025064,,
5.477537999999996,-171.13304592115483,7.516383003697768,-99.86214367264868,0.8593914239039403,2.276461961011183,-1.011322621830431,0.30587879458299627,-1.1624235907597826,0.29049718671007313,,
5.487031000000002,-166.7731574469887,9.475562995332213,-99.90946551343973,1.9314210047781997,3.406206954757205,-1.6709753755905556,0.22576067618863319,-0.9208625514864285,0.16923519287469557,,
5.496547000000007,-165.2540550381696,9.096094525795737,-101.41203983184259,3.2468290023937887,5.628292215960255,0.5491474349097825,-0.13401010133516242,-0.27908091865199935,-0.03708632831806556,,
5.5060530000000085,-166.10918452970856,7.116710015906672,-103.63265597079281,3.5718456623283354,5.832463775027322,0.595434588842551,-0.3466507186307744,0.25623478606521005,-0.10122012244918367,,
5.515571000000008,-169.01711459907463,3.7994174575606907,-106.00621366029138,3.0078720963574743,4.028964491896674,0.3961154434799897,-0.48367131421647747,0.7369102688080726,-0.102780789465512,,
5.525082999999995,-172.70032190275955,-0.4000601251657562,-108.2023866375571,0.966270093016057,1.4338141322813962,-1.1012234604552067,-0.573695400801865,0.959675876842114,-0.1066128811300489,,
5.534768,-177.6848588686743,-5.9039819638752284,-111.31345068351536,0.5965235564900468,1.1105139967246929,0.3718818820399928,-0.6820111764485842,1.3197249441504868,-0.368679682373042,,
5.5442819999999955,179.348547699193,-10.099933545197233,-115.02843442490115,1.0939608365092597,1.9852227140923704,1.044226781649998,-0.5298493771498534,0.8781450424172579,-0.5369559014885398,,
5.5537960000000055,178.77529121138588,-11.703790483442583,-118.56198367688872,-0.125147435155934,1.086086876017732,-0.05463932396330446,-0.23283192554582366,0.24830547883664408,-0.44483707461473915,,
5.563296000000008,178.76626459514037,-13.618770128357534,-121.00747865798087,0.39999564031788165,0.9670711395718646,1.051942639998252,-0.3296586409946398,0.1959211058800832,-0.22002816698789587,,
5.572810000000004,-178.90168671427463,-15.34167407841866,-122.27092195676788,0.32852420203626337,0.9504432671791598,-0.2102913453426051,-0.5332818064729015,-0.19733724864541602,0.14617977921644,,
5.5822179999999975,-175.16311309023996,-15.131719411182653,-122.28908975567232,-0.85797836653159,-0.10597024020741153,-2.587946043019233,-0.3577759073135361,-0.6286994377412332,0.4707779253146452,,
5.591734000000002,-171.7775358874416,-14.423310101413618,-121.41005157680318,-0.6504934327353777,-1.3727186370508884,-2.334100233977637,-0.23257010633686862,-0.6289630583458066,0.6102372190679465,,
5.601237999999995,-166.69085676626923,-14.496448002353079,-120.57137484655236,-0.468787834811925,-1.6473327392403905,-2.766309835709885,-0.5297142009958414,-0.8319445280973032,0.679666559846549,,
5.610751000000008,-160.74426352370256,-14.145369938174378,-120.06018380901601,-0.44569603695533755,-2.609364401831187,-2.7707163242522226,-0.5331379644280024,-1.0253878780420027,0.6526634098589534,,
5.620169000000004,-154.38299401176306,-14.42900027379393,-120.83971924511711,-0.6602205945866261,-5.3926331100031,-2.2827108284663598,-0.6855983689853334,-1.0276896624394631,0.4086018945388483,,
5.629699000000002,-145.77455583713154,-16.656732711243247,-124.47374402820631,-0.35235284377303694,-4.680704531222419,-1.4478037776342279,-1.2833471186993923,-1.1435399350166096,-0.012723188755890751,,
5.639194000000003,-135.6340494035131,-15.609243125992755,-127.86451651684452,-1.560935064663721,-4.459398089047697,-1.1743555883015304,-0.9990332430422844,-1.6875676099717036,0.11897414925837427,,
5.648899,-126.58817736251507,-11.078588809343833,-129.76422393055066,-0.43813652527153096,-5.069119745703767,-1.8318762827901993,-0.41456457331993013,-1.9375167462471947,0.2194758232892987,,
5.6584100000000035,-117.65207734748908,-5.456143856944182,-131.5886026824709,0.6137336424612907,-2.577537961611541,-2.1550858043660517,-0.3155162982174182,-2.0735641937679876,0.03978299064906486,,
5.667994000000007,-109.84735353075106,0.27844244738207236,-131.76899868599247,1.8936337755662225,0.03463959364366707,-2.3312458156977423,-0.18204884826732926,-1.9287393252356573,0.03476599269277421,,
5.677424000000002,-103.69499777101603,4.79276446241222,-130.40180998685105,1.4689627807579413,2.220696687995453,-1.242271470985839,-0.12823398916632417,-1.5212408378618023,0.2189325643788115,,
5.686903999999998,-96.66132906841597,6.799824992372111,-128.93256366505955,1.3944589415091924,3.7619118240853546,-0.9134030136059894,-0.5853974312399727,-1.3347041154837327,0.15157534014684196,,
5.696407000000008,-86.99362451061789,5.558104728591867,-128.25502214605243,1.9021913413739873,3.701372233551548,-1.0664137521939865,-1.3943194066514155,-1.3493330967150468,-0.07306727968336249,,
5.705736999999999,-73.36693172989199,2.1731040041156855,-128.43802235036898,3.6987028724233273,1.7011600937153244,-1.1412698209779764,-2.218215027118905,-1.7166831786265062,-0.22052419759275163,,
5.715243000000001,-55.84166955962102,-1.7767606330040215,-130.63520353339226,5.766965576248031,-0.9982887373432273,0.7659963455032485,-2.8395709538381273,-2.20740289783029,-0.4485108832979997,,
5.725014000000002,-35.47784326054572,-4.549256192274987,-134.9638768428238,5.992487659921454,-2.589217327985343,4.244626238283676,-3.169883712712596,-2.614725262973956,-0.6323393228762937,,
5.734364999999997,-14.80536083132357,-5.559945525201128,-139.59928185390257,3.3664076228042497,-1.9045948045558692,6.209756132593038,-3.165489126581154,-2.6504486906116704,-0.5532295245251341,,
5.743865999999997,4.501309851035891,-4.654640553723908,-142.53072166218536,0.33847393300742074,0.3868329019995929,6.807339099988546,-2.8824883487818576,-2.5596011457839043,-0.23714555010459337,,
5.753378999999995,22.797944989362623,-2.1546903540012736,-141.95104820379777,-0.23401008150613553,2.4106250846789865,4.60786030568303,-2.5878304785327932,-2.632217324115545,0.332634141573782,,
5.762900000000002,39.962619602669406,-1.1147453476045102,-138.30347574795414,0.27129766558410834,3.2712317286145476,2.5153018884346103,-2.504813283750564,-2.361806803191832,0.8227776791630134,,
5.772399000000007,55.71512871983688,-2.7704369672336395,-133.7895844137806,-0.07722419456573978,2.9850234142655525,1.4091148197673298,-2.4989028371155437,-1.9516305654079167,1.0048717988852331,,
5.781839000000005,70.25118740901482,-5.509908407837289,-129.20213702694824,-0.14080164226532327,2.465029152300595,0.5384858069499994,-2.33307768125779,-1.8138289705864492,1.1235402343322125,,
5.791172000000003,84.09549961148846,-8.367146097382085,-125.6879430052045,-0.58070609614442,1.8019562834053686,-0.006248420241593221,-2.125795728141317,-1.8393266556591377,1.0349920919958995,,
5.800675999999996,98.0066933608699,-10.578573761054074,-124.10529273449153,-1.4670763005288827,0.21235462740074693,-0.5093088894758385,-1.9334277514462466,-2.0015876325909856,0.7737694112747436,,
5.810139000000007,113.298984812391,-11.820012388465384,-123.42616152533267,-2.4474347065491657,-0.5203944891269155,-0.7648932375078316,-1.8748128081787694,-2.3595731706695413,0.729855413923727,,
5.819731000000004,130.38596290961974,-11.976307055638717,-123.54137422170754,-3.8817414779124153,-0.8639685399389092,-1.731431294734392,-1.8726093466394511,-2.7746319770321666,0.682379940428775,,
5.829242000000008,149.2387799378703,-10.809364205371892,-124.50624331550212,-4.816527216587651,-1.5574081215066005,-3.5666817829067528,-1.8781587400284343,-3.1957844079458666,0.5540541743507424,,
5.838864000000001,170.09378994279703,-9.11049649166665,-125.76110620848686,-4.779661620237293,-2.2538513192673766,-6.1476818454296245,-2.0911376233414787,-3.556205963960588,0.4736144631473954,,
5.848389999999995,-167.93962623143514,-7.707587947079136,-127.38912041469624,-2.497340635956281,-2.7627821026809145,-8.550050159811803,-2.369107419833678,-3.6585286512523467,0.32111816945889643,,
5.857828999999995,-145.91289909356692,-5.410632678765492,-129.39095417851567,0.4596381583358283,-3.2738312530960494,-8.825416206635696,-2.3643234016982144,-3.715594101990165,0.10796064737681618,,
5.867515999999995,-124.36811570047193,-2.352827129972954,-131.21850974661572,3.9549653200446806,-3.237013698264373,-6.95609809478924,-2.3223693528920237,-3.6734325227934708,-0.06935096319626967,,
5.877025000000003,-102.84285179227805,0.8934421513631376,-132.21628430299864,5.84405077814298,-2.3818576295747715,-5.079728967368995,-2.3884023192418047,-3.6444049985393745,-0.14233024903418587,,
5.886413000000005,-81.99645848744896,3.285531056338687,-131.841893101684,7.261910153868097,-2.8381632440197913,-2.9012981068936274,-2.4408377884897274,-3.4155771342506127,-0.07799201052232148,,
5.895746000000003,-62.64734880004573,3.779500339117424,-131.60967217634223,5.924031688289467,-2.0367439132606693,-0.558739782640015,-2.5005097387348094,-2.9511616587154674,-0.1926456830723374,,
5.905327999999997,-43.05325737693966,2.475882549263323,-132.68117004175036,4.767682539125826,-2.2730121542563357,1.1119189610465117,-2.820580067862344,-2.7314126745903096,-0.42651343734124003,,
5.915019999999998,-22.400730526651508,-0.03279171140547751,-135.38392461377802,3.5473729264617457,-3.272308370339779,4.3464821366915345,-3.231658687823256,-2.6277282433707683,-0.6233267583161467,,
5.924526999999998,-0.853708529021203,-2.18301968990338,-139.68941786800522,0.870311035114107,-2.1669352776903525,6.986201296406082,-3.4705163853472425,-2.599157065027679,-0.7682312982734364,,
5.9340779999999995,21.155769923880978,-2.788180202441612,-144.30872641957788,-1.473266039765233,-0.06449127107408854,7.326049695035259,-3.544011418067584,-2.616971329467463,-0.7222239299182205,,
5.943585999999996,42.945831471313454,-2.168403388904677,-147.6088085364681,-2.162425841502177,3.0718413200473886,6.436494359440247,-3.543832966583882,-2.5419316474747786,-0.46401859970398285,,
5.953097,62.4306416771622,-2.0453988555533957,-149.34245766587895,-1.6083835398286896,6.273489416782956,4.038555841849892,-3.310794577858768,-2.0593480226403034,-0.2002859820296741,,
5.962423000000001,78.28642944119945,-3.360670863683251,-150.33435389396982,0.5789707639562741,5.97721559318285,0.4267239217846998,-2.8734255298035287,-1.367076269771301,-0.04754072885992879,,
5.971869999999996,91.35622830330588,-5.802994612759843,-150.37013557524762,1.8129114089713636,4.9168014057055025,-1.2518095029476126,-2.508020134700753,-0.8672086378950371,0.20198942126962938,,
5.981329000000002,101.93760214798321,-8.871829170752795,-148.0427011266112,2.926521716606901,3.47515672550425,-1.5672199548179324,-2.1191627072139414,-0.5495754646481158,0.7351942710810342,,
5.990836999999999,110.42146694025145,-12.08753215725835,-144.02075016743314,1.9727043570103961,2.9739403629555974,-1.7293244169819035,-1.7450793086036314,-0.40050491262053445,1.1125903056762618,,
6.0003400000000084,117.18472537701776,-14.860861691012127,-139.13591741219105,1.1224291118567513,1.4263781519036385,-1.3137945991456335,-1.377077056990276,-0.3841020101433802,1.2922369427249165,,
6.010044000000008,122.64344498392494,-16.57783913463531,-134.78237811547046,0.08466086010976666,-0.5724046033075312,-0.46792138306313363,-1.0037162334483414,-0.46721417126093,1.167001176248905,,
6.019372000000004,127.34453970710878,-17.03182848895076,-131.85158721428934,-1.0864424624064508,-2.2571168907472914,-0.06279771752568361,-0.6843027465119048,-0.5933727200648983,0.8585317516407278,,
6.028880999999998,132.4907658293203,-16.643986834770253,-130.2879720430545,-0.6501781568834283,-3.1393961118364624,0.5841891469978244,-0.5893544158698316,-0.7945158294956173,0.6112591101325134,,
6.038435000000007,139.39507411123805,-15.141788532233594,-130.62747205571839,-1.4607921805139135,-2.9148054252756976,0.29767902277375147,-0.6340120955822761,-1.2064517602121192,0.310605945992205,,
6.047947000000008,147.35511181091692,-13.350470761865543,-132.16030049744975,-2.4324901603261484,-2.4541383742525085,-0.8403311636364609,-0.752639358232768,-1.3954362622520062,0.08576696299424577,,
6.057448000000008,155.51019304794818,-12.829448544282007,-133.9363273362673,-2.0069506898929093,-1.848220988128233,-1.5430906903600854,-1.0093001951995622,-1.2330575962696988,0.01475926896694322,,
6.066967000000005,164.2910839154738,-12.709473372763464,-136.35031679406157,-1.642344554194558,-1.5490943170748435,-1.890523716759553,-1.1982883783243106,-1.2260984521535399,-0.09383940404620503,,
6.076479000000006,174.39119581388547,-12.21990620655157,-139.25937002417766,-1.5905189716173973,-1.6631631391281017,-0.7773566816060552,-1.3968824600799923,-1.3983572394070358,-0.1445263200684643,,
6.085994999999997,-173.695572193052,-11.443767483424473,-142.07732750255104,-2.1416477697669016,-1.5753867059279063,-1.7914906213323152,-1.707182524909091,-1.5990866004521251,-0.0731725816488352,,
6.095498000000006,-161.07078932448778,-9.2507580882823,-143.98617857716866,-2.1057085999697387,-1.5852442863508909,-2.424088630564715,-1.7233690443033414,-1.8445508901508967,0.07341338658365122,,
6.105159999999998,-148.73006536121025,-5.50554766241395,-144.23019409053657,-1.5010281828274505,-2.1769638892485794,-3.3156012517510485,-1.5471799901373204,-2.0417879945004747,0.26874407946710793,,
