timestamp,Roll,Pitch,Yaw,Acc X,Acc Y,Acc Z,Gyro X,Gyro Y,Gyro Z,Acc Magnitude,Gyro Magnitude
0.0,-27.49383831263752,-20.84819451153664,-151.7194697732411,0.040436478371107344,0.0663243689110659,0.038346257137090105,0.0,0.0,0.0,,
0.009512000000000853,-27.53143629826645,-20.846733879944313,-151.6468512469484,0.039489001788548604,0.05872077083058578,0.03304645493851077,0.0,0.0,0.0,,
0.019019999999997594,-27.567199811143396,-20.840623826084723,-151.5706293369872,0.03747718683188821,0.05031007349707224,0.0292647102303469,0.0,0.0,0.0,,
0.02852800000000144,-27.595273513435004,-20.832625049164324,-151.502347893954,0.03761264846760291,0.04191073389531727,0.02706088126179177,0.0,0.0,0.0,,
0.05706599999999895,-27.622811352163097,-20.90182784703241,-151.41888911776158,-0.007248282000116372,0.02229991778320054,0.011268207767353813,0.0,0.0,0.0,,
0.06656900000000121,-27.62026010480871,-20.975704732325642,-151.42114299771342,-0.008729951082372421,0.02691593261372136,0.013588238988970474,0.0,0.0,0.0,,
0.07608299999999701,-27.62194544129306,-21.065105730340836,-151.4105805170062,-0.010813687887195552,0.03340473004107558,0.01684968766465629,0.0,0.0,0.0,,
0.09510000000000218,-27.65685087955574,-21.20452001572699,-151.26950053063297,0.015419044713069416,0.060755947627807096,0.009204804784219957,0.0,0.0,0.0,,
0.1046089999999964,-27.68461786377527,-21.21230825961075,-151.11371016854065,0.04683562376727272,0.0642724087067735,0.026422141747828105,0.0,0.0,0.0,,
0.11411999999999978,-27.711865123608572,-21.171185208878182,-150.90033084186152,0.06646114834000547,0.06858745816544033,0.025020445203241225,0.0,0.0,0.0,,
0.12364600000000081,-27.766230993850854,-21.106830734717615,-150.63391531119007,0.047903437998850884,0.08320229201068628,-0.037583020424105176,0.0,0.0,0.0,,
0.16159899999999539,-25.98727901466557,-21.39998187799241,-149.12174366703007,-0.23763170316432497,-0.02131856792116914,-0.2585363335824612,-0.18133627364253277,-0.06634412067899137,0.18382922251857606,,
0.17110499999999718,-24.704177054623816,-21.48944201009895,-148.55477978105753,0.32518132294724417,-0.03132458298984152,0.4682726579722493,-0.21392526663590414,-0.10841974800527451,0.20743062884632915,,
0.18067699999999576,-23.152982515605242,-21.44009270291009,-148.07916201540286,0.08965963034312902,0.13148285865705145,0.004144827027718743,-0.24081687258519946,-0.16023908446023905,0.20887504014518998,,
0.19012299999999982,-21.414420115798816,-21.28913191445432,-147.7834092037694,0.22649984715910088,0.05433512578299465,0.3529118255519456,-0.2587053272990059,-0.19775596148287544,0.1860345645478536,,
0.19961500000000143,-19.587935724328858,-20.90954070023055,-147.77645956032202,0.06382220681084971,0.06393308997080462,0.38854044711384206,-0.24815812301641715,-0.24623762813335556,0.13306363662144938,,
0.21827599999999592,-15.709525075379535,-19.553123289772152,-148.52248177693153,0.1819329379534845,0.06911089754163555,0.197384946250994,-0.21890380651370045,-0.30506893275854247,0.029405444571226947,,
0.22809099999999916,-14.109929528400022,-18.96175896992601,-149.16649305663506,0.15451758938974305,0.1282912684496216,0.05872087840227677,-0.19750816139126665,-0.2577826751114919,-0.02325995035564123,,
0.2376819999999995,-12.635324219868512,-18.2738733194586,-150.03214037675954,0.20069750988849244,0.10034027219415466,-0.011361760744658798,-0.1716472673270602,-0.26041422795077274,-0.07899896908837703,,
0.2472009999999969,-11.303944005182535,-17.410806973458435,-151.10069598002036,0.04874028511771986,0.14010085743573586,-0.2706229366235612,-0.1360907171065483,-0.27523182835329113,-0.13219822431715006,,
0.2567710000000005,-9.922395122187645,-16.52340726332727,-152.2303565194887,-0.09542129415126432,-0.019861045275666095,0.03269798603120549,-0.14856367440259352,-0.2819977179143528,-0.14538354598384817,,
0.2662070000000014,-8.609522732543487,-15.530828751066673,-153.28646057328197,-0.2711270503291572,-0.16162558983607597,0.24169944279857433,-0.13367049154145963,-0.29237780046732315,-0.13880869011873176,,
0.27570699999999704,-7.436414672617457,-14.385828545030273,-154.12980821324896,-0.40859030498073806,-0.1686497083445834,0.20326877117927142,-0.10191377697951154,-0.30608997278619837,-0.10816954117064459,,
0.3042420000000021,-3.8864853214706194,-10.585747903907393,-155.07357179697172,-0.11767871105578052,0.0017723773486905522,0.3733202769660175,-0.10213284867087735,-0.37152296908969124,0.019877064338863937,,
0.3136560000000017,-2.198402337471219,-9.463628664027377,-155.26141190621826,-0.35289385475543983,0.3642413001235283,-2.110894404559336,-0.2077402605403588,-0.34371089676150995,0.02124894769742744,,
0.32308100000000195,0.6780590519738723,-9.171991422354607,-155.59985161895054,0.6989293643369491,0.9780429651550271,-0.6282170655938889,-0.49266382250495394,-0.2894406358349901,0.025525021584655132,,
0.342295,6.526397758167683,-4.659708870139792,-157.46286899590896,2.943900658203912,1.6111577604944882,4.635730414031928,-0.11655830222511115,-0.7518780903458833,-0.1988392946220331,,
0.35180299999999676,6.054619525438508,-2.6096652586069706,-159.5522387957109,1.761079844425786,1.7832317942892546,2.409714023481182,0.23814883409669912,-0.34743881741945204,-0.4242127244230093,,
0.36130899999999855,5.725944762363938,-0.4587005514520684,-161.7669944641618,-0.23194188823328152,0.6118190707870692,4.506834555026364,0.20474167123172532,-0.38464648687514785,-0.4450794427510219,,
0.3708159999999978,3.8656102462505144,3.7116970954005195,-163.44685786537508,-0.589718963415735,-0.13886458063711057,2.1948008531005985,0.6050609116448868,-0.6855446787622045,-0.32554319574465346,,
0.38034999999999997,1.1493694364352502,6.370257058175059,-164.5802997207658,-0.8090042975020246,-0.40640325765786006,1.1783713994662783,0.6675070503860681,-0.3624576759892398,-0.17902375436205553,,
0.39009699999999725,-1.3709287565477002,7.035535046571028,-164.92801837649262,-1.7545750715579758,-1.1400836930773086,2.763041456936441,0.5186233981219556,0.0032938342209794845,-0.010688825880825573,,
0.39957700000000074,-4.381352347061995,8.591769091070667,-164.54829904169932,-1.2201773196613859,-0.7695681042515932,1.0834979881581754,0.6582092496698069,-0.1433581752445255,0.15795148739121162,,
0.40908199999999795,-6.478616913762654,10.44123478541455,-163.58994534930667,-0.1423423597644885,-0.07777514189488025,0.2787641261588403,0.4999615683719677,-0.24239785680687048,0.26125183299248306,,
0.4185859999999977,-6.577557430595602,11.251963686304352,-162.20980837572594,-0.1863275726107747,-0.506131152542247,0.750187393232108,0.06634491581412261,-0.14944565286973252,0.2800082017723349,,
0.4375569999999982,-3.875547148338692,14.465189838956842,-160.13163905850485,0.29478041689782963,-0.32538586445035517,-0.28252699638088374,-0.2028320509522983,-0.4777146287722199,0.08447103285631517,,
0.4495539999999991,-1.485350012998112,15.570516543817394,-159.66582158659415,0.08500279542239807,-0.48044835455428786,-0.32344711429859707,-0.35806967369281556,-0.3667081183268062,-0.03079297217943179,,
0.45649499999999676,1.103515793802757,16.308737346490474,-159.52995111405522,-0.3186907076975605,-0.5434904286182437,-0.7299091065233099,-0.41569211330008576,-0.31230842926041646,-0.11517875735383117,,
0.47550599999999577,6.670333626886759,18.445324023729096,-159.28290205649108,0.2788120433228769,-0.5572811270406314,-1.7346534696284046,-0.4213369276269218,-0.35530438443520634,-0.13267083071593208,,
0.4850099999999955,8.89440116035238,18.881043247999255,-158.88820403317828,0.0851860243966262,-0.7076589211340564,-2.056326784917898,-0.36300045868153563,-0.23211931945190645,-0.06352038535678042,,
0.4945239999999984,10.434284834753967,19.586850199967223,-158.13589003876362,0.3637577230862257,-0.8102146151047249,-2.708761748669348,-0.21913360305732052,-0.23815797242230854,0.049002540639347406,,
0.5135519999999971,9.786147001477847,20.24612466632082,-156.6174108633809,1.0084699243298774,-0.8221862786524147,-2.88951501148268,0.1932796637753774,0.08873735161549721,0.20047162911940797,,
0.5230549999999994,6.949102099569253,19.86225640790522,-156.54007916983494,1.098749412788003,-0.8186141132327786,-2.225990591317885,0.4591556972558719,0.28265280383923613,0.21029558788140984,,
0.5324960000000019,2.0663204300933087,19.642911522374717,-157.1718901416018,1.3698906733219067,-0.7273129240620368,-1.464176392196175,0.8289073475698764,0.40205018034522466,0.20403942724747037,,
0.5418430000000001,-4.69632154019556,19.458520857685862,-158.62339231828568,1.5315042793625488,-0.6069863362201843,-0.9731035178932909,1.1684088072902916,0.5142952700751745,0.16290897542424557,,
0.5513119999999958,-12.66034560670863,19.210547547191513,-160.75160280823243,1.2950209136034416,-0.6305734324107172,-0.6080490617467322,1.3939254832913124,0.568814282827689,0.1025856012551856,,
0.5704799999999963,-27.861362950686114,18.682612059765102,-165.70705497098143,0.4243534326212401,0.19150767881082634,-0.8912886888326889,1.262214298090886,0.4214688163085756,-0.0331476350302717,,
0.5798580000000015,-31.79486053205493,18.22007467649914,-167.58981211460346,-0.5148813277692964,0.8274206217713118,-0.958560931975062,0.7055778866763737,0.26258626576910826,-0.1274740206799794,,
0.5893599999999992,-31.212457045031126,18.26900283339492,-168.90696030522773,-1.5290995629364468,0.7975353790479082,-0.20891409730159655,-0.10645655548692579,-0.03217558299852559,-0.3001804926596559,,
0.599187999999998,-25.199246616780258,19.145206260615634,-169.57391311097118,-2.359317273625679,0.6650803015523691,0.7360965211431393,-1.08779053131212,-0.3851629109821647,-0.5195891890337277,,
0.6180609999999973,4.172241611601654,21.1534689283213,-167.37370695900185,-3.7927919637008087,-0.7823039464673186,5.907273820853331,-3.0492725250399815,-0.7831318476797882,-0.8484235848273289,,
0.6372609999999952,40.0150503664007,18.662147581114773,-162.93111374434034,-1.532709492071391,2.3334597155626744,4.407495644216236,-3.3839913646521893,-0.5915892627661189,-0.8024263692368085,,
0.6467770000000002,57.19559530823789,16.508531289074032,-161.82243425611944,-0.4721081304077503,3.737093426147811,3.6620095722563057,-3.2548559065224496,-0.584932725749149,-0.8189736554747431,,
0.6562179999999955,73.04672336457182,15.155572421965877,-161.72215356384078,0.6177667811417891,3.472471618401299,1.734772318777947,-2.984495094355628,-0.6994292985786831,-0.8459153848286483,,
0.675060000000002,105.64831742982567,17.24167834276745,-160.39256543927758,0.14276970438826367,2.990027951263603,-0.050039685730373935,-2.8791789642680827,-1.3742974207414713,-0.6852845833510969,,
0.6847589999999997,122.83689975036407,19.832955389857673,-157.75863484340817,-0.5292298377413879,2.9972781563446027,-1.5368583308310497,-2.8629721063164357,-1.6459809614683467,-0.5705660855060153,,
0.6942960000000014,141.4579831815272,21.999278265110963,-153.84005329005018,-1.0167257338548708,2.755732857403839,-3.485117289606575,-2.9985791323860913,-1.8189706947705802,-0.5526320949844414,,
0.713203,-176.47027344686475,21.704927500832074,-145.736337235445,0.21206942951019966,1.269595254780799,-7.262765244099045,-3.4503606922904466,-2.0017755896104794,-0.9107342204107587,,
0.7320360000000008,-133.3093075160659,20.75646530312,-143.3217068422207,2.8472991220593884,-2.2891665639054524,-6.936423532762938,-3.2532713293382858,-2.403530237739383,-1.4214767375127608,,
0.7511719999999968,-90.44716815237868,24.90020276432747,-140.78665861983245,4.307315492682005,-4.308671685994124,-2.931648167209195,-2.763041211679274,-2.8246964726987813,-1.3421881010968488,,
0.7606899999999968,-68.5660264638227,27.280390540084287,-137.3890027767855,4.388621161425719,-3.9216697421565954,-0.641821626334447,-2.6635442809925687,-2.930713455076601,-1.2534304220912078,,
0.7701980000000006,-46.273535925124364,28.255234087560357,-132.678493299644,4.0503410827551045,-3.251068175118115,1.578158792427728,-2.6557717555530433,-2.924691435555012,-1.1459851500862157,,
0.7798859999999976,-23.933462605851613,27.287962495397572,-128.24569787676063,3.2431903182727604,-2.316166974922962,3.4470206677733297,-2.7116584788541465,-2.8847234524862415,-1.205888276139552,,
0.7916519999999991,-1.5573183393124885,25.134293357240278,-126.12169467265429,2.197359950799847,-1.8150798895559368,5.656633222864661,-2.767655247504371,-2.944236839224392,-1.5584010458077266,,
0.8012919999999966,19.767453852687876,22.38718752985755,-127.30647979856475,-0.44350315285150954,-1.5150832282225195,7.0677370249414615,-2.773396845738417,-2.809029345508822,-1.9555424413651306,,
0.8109040000000007,39.57636963874773,20.325212516681475,-131.45209739222386,-4.123056503715075,-0.4775293962297925,6.0899909230926985,-2.662665803967549,-2.598834898362469,-2.267202202663974,,
0.8297389999999965,73.81336280697316,23.180750210283186,-138.03466195496378,-6.929223224639003,3.230814792952456,2.1814386405160406,-1.7989459068201978,-2.340726664706205,-1.6138907456022653,,
0.8392440000000008,84.72836600918286,25.501461433622044,-139.10168509694208,-2.27269514326007,2.2162205468711194,-1.4370219186116955,-1.1865611508297986,-1.6652957422916426,-1.1139777940455913,,
0.846308999999998,96.50237850403639,26.259045904752877,-140.91532323622462,-1.2005378711817047,2.20656556263532,-1.7419804293572383,-1.5282628036732826,-1.4792775963640241,-1.391040173136726,,
0.8653240000000011,118.65353427092894,23.708807803043495,-141.57001580744276,1.8886316377920016,3.438141198090163,-0.7299802590010969,-1.5327052568426434,-0.775738617747687,-0.7104362374077348,,
0.8843529999999973,137.3393808457938,19.759471188967506,-138.06331171117665,0.8577653898575731,1.0027300964017247,-0.36707556513678713,-1.7109457851808847,-0.898889338599291,-0.2502828795829838,,
0.8964849999999984,147.4412785679841,16.725343220074652,-134.3115311679735,0.7401653401561807,-0.36953240623144484,-0.3647464395440698,-1.8053737484291532,-0.8924332015796578,0.11609495521433064,,
0.9033499999999961,158.98880010572822,13.917653268516153,-130.7587014147122,-0.5864512755467571,-1.6340952095062586,-1.0052141010313267,-1.9200054263895598,-1.2640493812489701,0.09803863612518146,,
0.9153930000000017,172.26620171539568,11.204441581494732,-128.1348010740069,-1.8937231456495018,-2.5739545362130554,-2.88054675703876,-2.065921843544887,-1.6597190091941048,-0.05512758577811402,,
0.9534579999999977,-118.47755878625823,16.73188332873268,-135.04577341679428,4.198141110363636,-0.9941117353215912,-4.860349073667941,-1.6771843771785182,-3.2952341311017035,-1.472771517024021,,
0.9628280000000018,-101.84406533923496,23.119874062435827,-135.54456738485496,5.078591990956291,1.5184488407484626,-1.6420803524658645,-1.332887327061952,-3.106512426779729,-1.2344289205025245,,
0.9723529999999982,-84.86994910693276,27.73993437945952,-133.4169887317421,5.61530470272606,3.518695984057856,-0.095582488216385,-1.4953253172310914,-2.8328934118006126,-1.0364250619470647,,
0.9818399999999983,-67.2415613034256,27.75952494930545,-132.5106441634653,4.1679770649681105,4.124077065258816,-0.599714417779962,-2.125692594717132,-2.288091486294484,-1.4631230188917597,,
0.9983819999999994,-28.40001992802663,19.878995875755145,-141.5064665074833,2.7452000824292364,-6.26866307937337,3.2428456570159603,-3.2966117659999723,-1.7357546333451446,-2.712502167985088,,
1.0078959999999952,-9.199921876912317,17.41195930493747,-149.73799447367767,-2.8833676151478937,-6.38225388475759,5.00434990789555,-3.290351039261285,-1.6568309983438894,-2.863022571281704,,
1.0364819999999995,53.94183049347446,31.42403610604978,-157.53794711760878,-4.59426088755024,4.3818312284203715,3.995894904930868,-3.4210064109137277,-2.3807780142275967,-1.709340941612654,,
1.0458029999999994,79.98236371333603,32.46601090553861,-149.5391376067018,-2.4288230529733594,6.555555456412459,2.5915437600164823,-3.8616097199560424,-2.1510420771854966,-1.1775354055119267,,
1.0552319999999966,104.53388857935592,29.16805990610352,-142.58608202192445,-0.13876992244988076,6.194434799542715,0.5533262460862299,-3.8594467869358446,-1.8147984422433308,-1.1425987212768711,,
1.0647459999999995,126.37491033907881,24.399442914574376,-138.50318899450514,-0.7424082317688019,4.140385978454753,-1.4476526250555575,-3.61123901648004,-1.751491599977139,-1.1617843746788166,,
1.083827999999997,170.38283214716168,14.159596783854287,-135.34585811220384,-1.9634148936624254,2.2239586351303853,-7.054754700639562,-3.690713972774849,-2.2716125129613918,-1.0950742614165445,,
1.1029399999999967,-146.58639199665961,11.428936692460749,-138.1884066764634,0.04504302224588871,-2.86075247760937,-9.68061197585655,-3.10733267448591,-2.821917105101973,-1.267049184331585,,
1.1123759999999976,-125.27132870441055,14.07800825290231,-140.4360389331473,3.2095523896332034,-3.1886376346312875,-8.593042347289204,-2.815198995187905,-3.112184673566738,-1.3869251081731666,,
1.121806999999997,-103.55349635293145,18.996624555167113,-140.78591994476363,6.615845765607145,-3.6441935352803516,-5.354144338418886,-2.6049723830060802,-3.3981068837274293,-1.3070443525334634,,
1.1313239999999993,-80.6221215671528,24.00119068109304,-137.75994519191292,8.491116722562058,-3.6452385440260526,-1.3554331618491617,-2.5918188655929857,-3.535355328840433,-1.0846014781797182,,
1.140819999999998,-57.01860018276271,26.067604885829976,-132.82902370981694,6.209574823844321,-1.2967378903802498,0.7169217368876789,-2.7540352583279963,-3.299141717195189,-1.0244405297635095,,
1.150470999999996,-36.63227517485559,24.199487204550266,-131.94142517606636,4.721775174856375,-1.818924623508412,2.3702848719386145,-2.764287482819066,-2.479852592308788,-1.5577930806685,,
1.159984999999999,-17.53455702910378,22.379421945773533,-135.91506784297277,2.1604867561715904,-4.03920812574612,4.2680113253021155,-2.6997184239908347,-2.2816905017480504,-2.301287364803928,,
1.1695360000000008,0.4940598906789161,22.784055966135856,-142.03133095379565,-2.0228618188574847,-4.071517432939393,5.933608907577376,-2.4659215583564795,-2.2522609461069187,-2.602109222469065,,
1.1885569999999959,36.29903478442561,28.167068845248853,-151.18751562610422,-7.111499346254971,0.29022083873820437,3.9180042857486317,-2.5313090426507188,-2.187516353948146,-2.322369565935481,,
1.1978969999999975,54.56273699635935,30.09225435685351,-151.38246083489827,-6.458683025046377,3.2626531970612827,2.857117092976668,-2.618321888267101,-1.8702730475243676,-1.819183894336173,,
1.2074039999999968,70.94990017086117,29.065847775656835,-150.25575186174734,-3.6250892974859945,4.443325466482689,1.4609066451782016,-2.5904315131737747,-1.2128786644236682,-1.395297713926382,,
1.2170890000000014,83.76536537162659,25.342277097326157,-150.09406223046463,-0.12389497579650542,3.6809838726126523,0.6713018545738195,-2.3494581531148473,-0.49099252809239663,-1.1408507352106632,,
1.2266009999999952,92.95581932012306,20.835669774320937,-150.9739670510051,2.051537095137086,3.672005642002036,0.728833090571262,-1.9172892087456208,-0.04877970138121896,-0.8973435175079417,,
1.236112999999996,99.21658298236946,18.10157696515252,-150.83967010797522,2.950276765982678,2.5894353594248454,0.1610913372025358,-1.2987422178809245,-0.0967327896736782,-0.39085077932805135,,
1.2646560000000022,113.40399154001193,18.000027405262916,-139.7097950047023,0.19978140539658248,-0.523181044959466,-1.0477588733623358,-0.4826783220751356,-0.5443123956989466,0.6681850793443757,,
1.2836670000000012,120.67568726119221,19.809529800126047,-132.84085095790414,-0.247646042714594,-2.65692292799749,-1.1022985586261795,-0.3733983798944433,-0.6124121807448212,0.37973522286637496,,
1.3026899999999983,130.49043089926343,21.03579129389357,-130.6097614509648,0.2399004806648105,-2.5079052148873253,-1.1241815104120703,-0.5655648365192371,-0.8492168892038001,-0.32167367440063294,,
1.3121980000000022,137.82126761221298,21.474011059845303,-131.33268654589526,0.414872311875222,-1.860335306577561,-1.0477326574884445,-0.8307045259621952,-1.0902252514906934,-0.6765925702018142,,
1.3216019999999986,147.91607346680723,21.742992064095425,-132.57648578746867,-0.08076485830307309,-0.06974616553201089,-1.361419842547105,-1.2163296673190986,-1.4333630327233362,-0.9926643911071746,,
1.3501350000000016,-172.18104711957102,23.841875641550022,-136.60954723411183,1.1440613713448653,1.5576019362687594,-4.219148844870822,-1.9084625198874348,-1.9972984020290512,-1.4256246417264442,,
1.359650000000002,-156.7826681625466,23.97800281811547,-137.55031880244067,2.028482524255567,1.0482660407521025,-4.284610526947927,-2.0454917106920076,-1.9391408684158127,-1.4367190409133994,,
1.3880989999999969,-112.4400518642022,21.896217008844463,-141.82352166797946,1.9347327623192019,0.25719009243108554,-1.583841423639751,-2.164529182865813,-1.4844394922446802,-1.455842173545102,,
1.3976079999999982,-97.79072584880545,20.728741253710577,-143.97704092350725,0.809410287774063,0.9593464915430587,-1.0628049783512372,-2.3203597108206044,-1.4633084571084396,-1.4950809939963798,,
1.4071229999999986,-80.29611663781127,19.686270060541904,-146.15175660612164,1.347767678532994,-0.7610785840822677,-1.3453091153365373,-2.814516103939277,-1.7133461804410244,-1.6423123213528772,,
1.4357919999999993,-16.737237321551298,18.01206597100812,-150.35961770379322,-0.07747656717283714,-6.580136225967032,4.898170167768139,-3.566928172956663,-2.021833330489343,-1.5071526855462045,,
1.4453540000000018,5.092350846844469,18.568613809745784,-150.26182406176298,-1.0594791272118298,-3.5090646227180775,6.806522926239181,-3.5510781689796267,-2.1513537342648177,-1.3525206187081058,,
1.4643749999999969,49.71573206468302,18.223857187164295,-147.05157316246493,-2.1879493703971478,3.669922935300736,6.739875221853221,-3.6642153913564277,-2.1621169974043606,-1.0475323567632968,,
1.4738839999999982,71.90148620318958,17.69086713075462,-145.02826583139895,-1.773601839062102,5.328139147719636,3.8652217223674765,-3.5628493379086272,-2.2726132069286904,-0.9691324726448347,,
1.483195000000002,93.48254201152109,17.649314231656966,-143.017791485299,-2.2030034193028056,5.22434445911211,1.3617119181746589,-3.3356087419065115,-2.4113472883940306,-0.9134092800964704,,
1.5022599999999997,136.24658313536338,18.845737358638374,-137.69568947121377,-3.4049682796479726,3.1700888664196762,-3.847456429781913,-3.000576454057195,-2.7763142602914166,-0.817771286453209,,
1.5118129999999965,158.77530175302226,19.177110457122932,-135.11257692196673,-3.511052159746693,2.622824401838863,-7.320441551569762,-3.0416431433051034,-2.9865668873337112,-0.958007575236581,,
1.540346999999997,-135.71988997207137,20.323327311514205,-134.81268184540176,4.07629518454004,-1.0072592970481224,-8.35781016696128,-2.634252271949624,-3.049744298184857,-1.7140503188253233,,
1.5500429999999952,-114.51222914942004,22.813474218294125,-136.4486106350004,7.121399859922507,-1.5565331495000105,-5.817809042538348,-2.4789168885881456,-3.11481981356045,-1.8850197728474514,,
1.559469,-92.75679117746512,25.78318812228087,-136.47031902380593,8.301841580873582,-2.839519838256816,-2.7044108022698308,-2.4732540579627407,-3.1608675494193594,-1.7966848585324218,,
1.5689369999999982,-71.52050081916089,27.459784153269588,-135.38640593731262,7.006773475567656,-3.4345639686624874,-0.41107887869917836,-2.4996844505376274,-2.8817505070556244,-1.6903130169799083,,
1.5784499999999966,-53.076554922112265,27.236858895812166,-135.75241739412883,4.196047388007184,-3.2043732003498917,0.7051350279048475,-2.3736424273378427,-2.2649567078456583,-1.769378005156893,,
1.587961,-36.48889953151245,25.400015959991002,-137.9915453835579,1.4788124931487452,-3.993201035260114,0.9946371527641624,-2.4238431914022174,-1.7697414423091689,-1.9184185402829161,,
1.5976929999999996,-20.850774421607877,22.86976318624096,-141.7859511456666,-1.660625850276351,-5.2910155053691454,2.3227225579675386,-2.512219429985756,-1.4574323570707364,-2.036085247811446,,
1.6262240000000006,27.896058507466012,14.819124480774027,-151.5826222307294,-5.301811973874219,0.11784057832378635,5.695573339706167,-3.026377220139745,-0.9637917172227793,-1.2883554756288342,,
1.6357349999999968,40.46607983369968,10.882207488698883,-151.8762965535162,-2.41035121843089,3.4996157958189893,5.087552148498846,-2.5336927791413313,-0.4709887523862456,-0.6183904464187204,,
1.6452449999999956,48.45803356668746,6.134111468571067,-151.9416184336621,2.135142099450442,5.1325689437609245,2.6063981171579926,-1.8436374826407906,0.09198655747526108,-0.24976573662270415,,
1.6545789999999982,51.751651759589755,3.449372389605125,-151.83713256483296,4.094722068986339,5.196466167597422,0.6682729151124097,-0.8329673692792996,0.16438335777404545,-0.03411939336415893,,
1.6640900000000016,52.43143810779825,4.6828968925798735,-150.54587866423788,2.539765302340581,2.430715811854751,-0.24841574787434392,7.601274841082161e-05,-0.28189892750231005,0.24879718337632165,,
1.6737819999999957,51.80036362023079,7.922636001725938,-147.81231341903467,-0.663913117743128,2.1154802852894856,2.4878983880200822,0.440360181717461,-0.49286348988820833,0.5608639058694638,,
1.6833030000000022,48.115140830295964,12.24511366618817,-144.1152991255839,-1.0911551219010092,0.0590612039805776,0.8130129276967837,1.0868372302082125,-0.31041526268108116,0.8686119157881179,,
1.692611999999997,43.72217421514308,15.660179092069546,-141.41699883458213,-1.0552141450355346,-1.062750423752299,-0.9010876505290439,1.093607649745412,-0.02761849848388713,0.7517922853410902,,
1.7021249999999952,39.7647247615753,17.72779424604316,-139.83442728926175,-1.8155931665470846,-1.8515890131818018,-0.8003288928879283,0.8494437641987916,0.16161944738577289,0.5442535593763892,,
1.730679000000002,24.422621376388282,17.893127791997323,-139.83363253360332,0.41959758743208453,-0.854832593065712,-1.3187189143534979,0.5841392029753305,0.8101915347049286,0.1409171734449362,,
1.7401750000000007,18.697484119416767,16.88176251044133,-140.79680838826792,1.3641800928167571,-0.3034695612051733,-1.5164716590706948,0.7127127405761947,0.8543383451541263,0.1499508441414079,,
1.7496829999999974,12.374384043714269,16.10629535887309,-141.68135928593514,1.9136127209647396,0.38053409050253983,-2.0896131101949784,0.8495525136918879,0.8810481024487031,0.1825949475629922,,
1.7591850000000022,6.063003284258737,15.581730601042862,-142.2224584453965,1.954805499405884,0.2156723707990708,-1.231889498030955,0.8927668470098329,0.8319677050703024,0.23684213216581693,,
1.768704999999997,-2.0259740912220408,15.970267813951224,-142.24416091310692,1.8307075538781101,-0.40653597797498375,-0.7964149225029739,1.2798215629372838,0.8932802766577604,0.436049961296811,,
1.7782119999999964,-12.598384375540748,17.459463591273796,-141.7735592498236,1.3010948043400254,-0.8601404642706079,-0.8230187062170787,1.7811738123279266,1.0138343656161182,0.7028774655127316,,
1.7877149999999986,-24.597021401087137,19.501390402308136,-140.8770101306318,1.311209478045772,-2.55234710210473,0.009195597880385556,2.0339540301278887,1.1061570379363417,0.9405312981620555,,
1.8258499999999955,-94.32759648415633,27.42811890306096,-145.86886851315828,4.02540057529958,-3.4575737114877803,-4.47171516154456,2.9010343976374116,1.974171641322199,1.196774822776006,,
1.8353589999999969,-114.14399338667677,25.59392865409719,-148.7674584998237,3.0895994770910775,-0.890500505231755,-4.613977296619817,2.790413743631015,2.2218588072401277,1.195379297259519,,
1.844859999999997,-132.10933372696732,22.116410933987172,-150.3275659625217,1.9236773840853392,0.9632671768428439,-3.834662368792322,2.485323482119636,2.2621477153130622,1.1446548046146536,,
1.8735,-176.94735661577167,11.281120066785231,-148.08206313720575,-1.8771727961682796,0.7948367991219638,2.0544541474645857,1.9780223836098096,1.9649986140931013,0.8503479117057285,,
1.8925259999999966,154.55220734596722,5.635625426265804,-146.4149889541335,-1.8966396281190738,0.7893107390908116,0.9911044478772243,2.1883071118153317,2.0543725974805325,0.5082766174303804,,
1.911367999999996,120.68706868275042,4.522248835274899,-146.2990612992414,-2.4747947737171834,3.14498195430305,-0.04897218114542175,2.8724938644528235,1.9219253768336435,0.2513536188514011,,
1.9208749999999952,102.2506684683674,4.9860197953951575,-145.55713357911029,-2.5988713651389648,4.350970191461351,1.530410913530421,3.0986229230072664,1.9845384049892296,0.45314541065361097,,
1.9400779999999997,63.36196992426698,8.69669304825233,-143.75504884381394,-0.7286129409766893,3.1275513860379296,4.227216592540102,3.3636555932233487,1.8818738886830795,0.6287199055994017,,
1.9495900000000006,44.2981394435152,11.376717374088214,-143.48001895627146,-0.06469565836902665,1.0901645050636113,4.938804251551328,3.341899627553892,1.801825521137087,0.7197970579852873,,
1.9590979999999973,24.727122912609055,14.000042842835116,-143.2663707838498,0.5503523534078574,-0.8994532266470712,3.6890710094309527,3.379012444687813,1.8637266735464904,0.9031712931544054,,
1.9686000000000021,5.714198821492711,16.25573376943354,-142.63313228573455,0.5323021042023436,-2.433146939149521,2.467003116208464,3.203455466272352,1.8575785317855227,1.1193052894303261,,
1.9969490000000008,-54.35415222271956,25.332231016838886,-139.0637284532811,3.9065717961044797,-8.521663196991492,-1.5983442746517351,3.453267823772931,2.011597307165048,1.8710376982607246,,
2.006461999999999,-76.46869690340802,28.736051909369095,-139.73967154873023,5.092294309402504,-7.467576570409103,-5.166849566557628,3.4327340819959984,2.05557261962956,1.8790452986324744,,
2.0160509999999974,-99.75183612705106,30.695738091859084,-142.71473646467302,5.577056944827126,-4.464710921733466,-7.939507797582836,3.3964504658936483,2.2319619016493113,1.7216140318863535,,
2.025559000000001,-123.47462812517344,29.84428390198535,-146.50750027114364,5.60845524245612,-0.5585549681134848,-8.988318489423259,3.2435435974459703,2.509928631062011,1.6428908919899683,,
2.044587,-167.3926106675584,24.22444789917244,-147.0321501288394,2.855193574812847,4.296064445514975,-8.079290785428022,2.9621036261740312,2.5273445524614813,2.0586363347562737,,
2.063614000000001,150.48987751667386,21.110055502023688,-143.57344643762795,-2.7464493400937378,4.350405524759535,-4.177244593327755,3.0553516697795016,2.4745529047563264,1.850960964155791,,
2.0730409999999964,129.6496808914259,20.51555466646474,-143.76218326336365,-4.6759648832649505,3.9595749762643804,-2.8157908384416706,3.0717850225600025,2.4052504106129953,1.4449941372415849,,
2.101754999999997,63.79414757652823,13.970324297706615,-149.50153683118927,-5.852975921303841,2.454098742163633,6.056367299618487,3.3734520642759622,2.7817581097893505,0.7225201836291182,,
2.1112679999999955,41.46195357191759,10.714708650789197,-151.94726248014956,-3.166365768206043,-0.11832713688558294,8.068180091272358,3.4953755579136674,2.6973245639355325,0.4725504234297905,,
2.1398149999999987,-23.926553058449887,-0.6677704319805924,-158.57038641622063,4.611350348968633,-3.4629294628763363,5.496553159231025,3.557124057070106,2.480173137454992,-0.22527939300380173,,
2.149312000000002,-42.258446767089644,-5.010043006357727,-158.95904175085332,4.525488795083249,-4.059392302723742,2.754706633577623,3.105983437150252,2.1318480745183503,-0.2590297135055571,,
2.158633000000002,-59.21102268783911,-7.454327007388954,-158.14858049261164,3.9839943162390026,-4.0662740995283695,-0.072352162034726,2.9633016150151827,1.6861179402103732,-0.20753839136332392,,
2.1871969999999976,-105.77256556310716,-0.3959125483236379,-155.21849254917413,-0.507501669462211,-3.1325652482957014,-3.2439076297501255,2.8238739514005338,0.3199007442107193,-0.1653048707459657,,
2.1967519999999965,-118.33503035800761,4.532505078274425,-156.52671727305847,-1.1124589013550352,-1.6797935995652051,-3.3482798492570893,2.696382248737257,0.130586916370716,-0.16976827221175864,,
2.2062589999999958,-129.7582078303724,9.160984714610855,-157.69902581715758,-0.6264792433091715,-1.1469624410658654,-3.3768595360951204,2.4516279947305253,0.032219270304604135,0.039008973039784435,,
2.225284000000002,-149.6993105895572,15.618893931310147,-156.27478166896407,1.476145940112234,0.2964881022835296,-3.380749261396001,1.937534282895208,0.26089990890309395,0.7780134110955162,,
2.234702999999996,-156.80935593970997,17.33589169105593,-153.02282489214093,2.402316723081517,0.7563029288980055,-1.8967195178730998,1.3809445310780595,0.2742356772228672,1.0539227868583596,,
2.2442259999999976,-159.55854477664036,19.117477711148812,-148.24748931786814,2.4680170238000603,1.3733132631778644,-1.3943849890041968,0.630768382212511,-0.054468428959775834,1.1278749725871253,,
2.2727640000000022,-156.40111620723403,15.517843616454536,-138.02427625192954,1.7987946362967644,-0.21700880278489687,-1.77145483346168,-0.674759628600189,0.2635355349379361,0.18235598571315312,,
2.282268000000002,-154.73412298535484,11.663188805580896,-138.8401845019573,1.1988328125289704,-1.0529089722668692,-1.6642810773815615,-0.7548575806474774,0.3622046788497614,-0.24173233316168571,,
2.3012919999999966,-149.5134949609692,5.785509223460354,-145.10647867570822,-0.6565056373029656,-0.9445240216319201,-1.3589552663810571,-0.7612781430878554,0.05522024471946122,-0.8102910620813757,,
2.3109899999999968,-147.4847654222209,3.9757587241502947,-149.28487200942897,-1.1083486276434507,-0.2869561351411179,-0.1835749865414462,-0.5365561623112681,0.08528992124341714,-0.870897609926216,,
2.320492999999999,-145.76268510187984,2.848242277602016,-153.27139478696913,-1.4469326538756453,0.6903455543403274,1.3564444835875158,-0.41035021955057865,0.03255270193391757,-0.8185073302332093,,
2.3490249999999975,-138.32478082139298,-0.4920885092791594,-160.5359751888423,-1.1311716665236469,2.755353437824648,2.8585225847588154,-0.7251732357133408,0.03424865326641033,-0.3577773672381228,,
2.3585390000000004,-133.95302482437975,-1.6125278099533285,-160.1980928325229,-1.1158418917389075,1.8702207325981794,1.5367272736152968,-0.899297716945251,-0.08539100944314665,0.017516472724789293,,
2.368043,-128.76919344178316,-2.7510246784806034,-158.55259277884474,-1.6241865613034323,0.9286232066156314,1.0209600006337558,-1.050480511541049,-0.15474289474169803,0.30980029379445784,,
2.3869089999999957,-115.07264543046074,-6.06217531527377,-155.57382601027342,-0.7671156542103232,-0.6860804150809097,-0.5767681101623908,-1.4248527982060806,-0.270701939678521,0.3918273618904673,,
2.3963989999999953,-107.921899470269,-6.916629253154644,-153.93341090873395,-0.3775668968098446,-1.2631458578513404,-0.45535806602590334,-1.3595854008507577,-0.452127828694131,0.4897336126441445,,
2.4153769999999994,-91.74584797472917,-5.658992443528053,-151.42318555917726,1.0344310948857638,-1.4887444383868604,-0.778556517155067,-1.3492681656116454,-0.9747259122980243,0.3868798834848787,,
2.4248819999999967,-83.99391675587185,-3.6598052854428764,-150.2513046753866,1.6126423668537961,-1.1220709646521727,-0.5480266489462414,-1.1562032157786615,-1.1029136091526759,0.3603716740987567,,
2.434390999999998,-76.78994529214647,-1.0987843804545296,-148.95300103086115,1.932364440111158,-1.1419824366795153,-0.35877738588087765,-0.9840400631004129,-1.1710435443979736,0.31949017770071947,,
2.4534200000000013,-66.40179408430744,4.662956997679339,-147.41150150326249,1.9799358841694266,-0.8013570270894468,-0.06452811333959893,-0.41700902596477796,-0.9421846209958659,0.08478222328939712,,
2.462918000000002,-63.75175715185502,7.141373943742741,-146.48033081387743,1.7416164273652162,-1.3933680618605038,0.17442333207791585,-0.17178086122286035,-0.7037833571879886,0.13184850434253229,,
2.4724239999999966,-63.017943486383594,9.404294324700272,-145.7745983525978,1.4078949819485624,-1.6118287924025836,-0.00447593977780796,0.13181557378508812,-0.45726339536289284,0.12017801653667586,,
2.481944999999996,-64.18038051202709,11.52034701498772,-145.38941895305902,1.422874357187075,-1.66242062238351,-0.30239263354530893,0.4283245686904465,-0.2201560805631203,0.11942039260941562,,
2.491448999999996,-66.96848099999592,13.241880413702363,-144.89877604985912,1.5371026658740752,-2.004675829999228,-0.6626960311805249,0.6444518075510616,0.028826635516017933,0.2179436737000772,,
2.500963999999996,-71.35667291308411,14.535825836648243,-144.57337265177247,1.3511842222771908,-1.817844421221094,-1.1038088439868243,0.8459802577654438,0.28100470929799715,0.2760567930379949,,
2.510469999999998,-76.68852976876585,15.34634519319024,-144.80521835941184,1.2197162841207456,-1.222035880730758,-1.3548434491774832,0.9354686524311185,0.4638478249845254,0.22889052637347612,,
2.5295229999999975,-87.69980612638568,14.447078486139503,-145.8180346536475,0.9454960962900707,0.011969556181363286,-1.475406684409943,0.7555392653408891,0.744898248568513,0.1763495284804506,,
2.539024999999995,-92.50683872422366,12.522311811168281,-146.4231022459267,0.6795803824223062,0.6028879592205183,-1.3909474313783174,0.5623098235686433,0.8415240724156627,0.10333543801243128,,
2.548516999999997,-96.72563401153991,9.672888121613415,-147.14319548969254,0.02005956532314794,1.4465494973414852,-0.9228977825814698,0.3810719446157156,0.9312270326397821,0.01845367629377805,,
2.5675430000000006,-100.50931048791216,2.2283391598482742,-149.09598426163657,-2.308668537131902,3.002327778594609,0.5274540158139924,-0.2682437710434791,0.7508673204445548,-0.216396861364567,,
2.577055999999999,-98.0159129782219,-1.629165235641917,-150.98356954065878,-2.6402518056971207,2.2909399012443203,1.0061104910274514,-0.8182866876782506,0.4197505069673072,-0.38040526235367933,,
2.5865620000000007,-90.5572479745812,-4.929915335053486,-153.67422175852425,-2.3941071023314224,0.563963538508204,0.03749943772739541,-1.6271260080107457,-0.10799133643740594,-0.4523980124856128,,
2.5958949999999987,-80.28698768213161,-7.267280557570618,-155.63701309346294,-2.541210070853127,-0.9136518640030803,-0.1155643441650614,-2.047770247871415,-0.4534769643533391,-0.17343281470984376,,
2.605426999999999,-68.00365640740195,-8.452571791566392,-155.1946562100299,-3.137358843016956,-2.3409439997821666,0.7871701631859973,-2.3139392900191216,-0.7986033465262322,0.42451172687837657,,
2.615122999999997,-52.790749068793076,-7.937673755236286,-153.29560471491288,-0.45569908136495574,-4.269632799997041,1.5376386135108309,-2.6714026412327274,-1.4025881069558597,0.8121921769200432,,
2.6246269999999967,-37.84380186109347,-6.69454522028129,-149.90484771632194,2.1492738138742946,-2.950099099934927,1.919163328814777,-2.49446143437082,-1.6301463584360345,1.0561352949587468,,
2.6341559999999973,-24.746580998186115,-6.778556321593553,-145.10865794365762,3.2545231824013987,-0.6673481648981454,2.1450720224399786,-2.206901747828843,-1.3856613101319086,1.2636545260272964,,
2.643656,-12.380470394874855,-7.674696661628536,-140.70168655131442,3.884980124178534,0.7218119498536325,2.682981210273381,-2.068209525312959,-1.339663094636462,1.1903315934299656,,
2.655656999999998,-0.38995488185209204,-7.2509138925739585,-138.3881605303748,4.111267873022809,2.1176362761240197,1.2294046882297,-1.7569683503486542,-1.6093556222993308,0.7733449126971846,,
2.662931999999998,11.459012325206144,-5.666009761279729,-138.45924640727185,3.10629415220843,2.0440196191197626,1.5363823598540551,-1.5539027472985816,-1.8012127108892213,0.2527192515793387,,
2.6748949999999994,22.27906015993189,-2.238179278788292,-140.14402253116947,1.0871948660248185,1.1859896589300107,1.4768017831808735,-1.1927652766086925,-1.928545951768401,-0.186852894150365,,
2.681955000000002,31.289661405328925,3.600021618921667,-141.75534024194147,-0.34456938653029506,0.495028921242749,0.6377465599994286,-0.6667626823481607,-2.0432357236338543,-0.3431668002611285,,
2.693930999999999,38.315302120971126,10.076116122261903,-142.5986276701781,-0.9597530377459172,-0.37802860091287227,-0.5357031877125685,-0.30971505750173434,-1.8801600564212686,-0.3361560507792938,,
2.7008170000000007,43.117982974217924,15.413946680056238,-142.70946285484956,-0.7776035348488546,-1.439545531591762,-2.3927259087396737,-0.09791782648303696,-1.4184897244067451,-0.23453712046558237,,
2.710313999999997,46.442313030687,18.8599223301169,-141.9734411004433,-0.473845606134006,-1.675847824081041,-3.212930001627563,-0.08216264244905791,-0.934836815163748,-0.04901290388499331,,
2.7198279999999997,48.95168447370795,19.95032973673513,-140.67510309715334,-0.16182020170828262,-1.5999792880474395,-2.905694623922006,-0.23353501561746842,-0.4666237922170821,0.09288752773716308,,
2.729334999999999,49.955159482923975,18.772015795357685,-139.42474560614394,-0.02499994001630284,-1.2061964491353008,-2.4187435601664475,-0.29681233529767265,0.05913953488922213,0.1837202515659308,,
2.7388419999999982,49.72573466853803,16.29900738400397,-138.34030830440662,0.21573888938888527,-0.7876602693937872,-1.9986917584382433,-0.29263714286790243,0.40188523742557175,0.23098714085736774,,
2.7482860000000002,48.40247553929517,13.668863917426068,-137.38955982422456,0.30618687228464897,-0.16138056005819676,-1.0830725598259265,-0.16348372654899412,0.5622886224179263,0.25888771159298185,,
2.757795999999999,45.43150488417428,11.382094622079558,-137.05117170797092,0.43174524015730786,0.3544560422497269,-0.8382097510019498,0.11534358228295319,0.730486439164442,0.19681456662541316,,
2.7674900000000022,41.404921667117854,9.598090187227035,-137.59674475964758,-0.16482574970784594,0.8472536561711015,-0.012300156669079462,0.34082313427098443,0.7999660730911302,0.03768252891676813,,
2.776994000000002,36.46297894255639,8.574070280028769,-138.74764547273116,-0.7626432028386573,1.052105894652636,0.638418476834973,0.5914584236583353,0.8043861537221036,-0.07395540054903513,,
2.786515999999999,31.02044069460455,8.103322177374032,-140.29150759938878,-1.3172860402652429,1.1232005710269828,0.9700690723416067,0.7590236361201387,0.7716887340531409,-0.15077598916041665,,
2.7960220000000007,25.736959992097773,7.5846071293362085,-142.06303222760312,-2.1977239344557065,1.191657586055288,2.070998883641697,0.7514723049049004,0.7379507171487647,-0.2099928371934381,,
2.8055219999999963,20.848467875201024,6.6716956003807555,-143.71858042194182,-2.688843067207066,0.9057157025795262,2.5249821274151745,0.6643986774067606,0.7317637343448584,-0.20973463305703385,,
2.815033999999997,16.429780432991997,5.221594420046436,-144.7253555698644,-2.7271564036241975,0.42888542910226085,2.4369577131115863,0.543474808997548,0.7506240520776598,-0.13542764195429763,,
2.8245509999999996,12.426218701318582,3.0291390507761826,-144.91694191376308,-1.8468767759017461,0.5146839753861493,2.6182738690448466,0.39966002113211463,0.8199671156871414,-0.011953132658991289,,
2.834060000000001,8.56287992545989,0.027499826721367908,-144.32191546756903,-0.2507974533497534,0.49825084894318444,2.5445584039288884,0.28166578014387345,0.938025422582654,0.11409305676129944,,
2.843562999999996,3.9983667170283135,-2.8456337610581044,-143.0060656557427,1.2298659248838224,0.8847609223068315,2.0374890369860883,0.39454178410822754,1.0050681744195111,0.22012917475463034,,
2.8530859999999976,-0.5403333537899436,-4.678157884337167,-141.05104191495883,1.7368272597862624,1.1362079230903386,0.28895057720056905,0.4881703617690739,0.8478250487375935,0.3006930379623633,,
2.8625899999999973,-4.4841670337355515,-4.868980541203479,-138.71655346523664,2.2887004201700645,0.6579915698970928,0.6785743729247623,0.5759835443035886,0.5376986602853625,0.34709874495805443,,
2.8720989999999986,-9.408025163440618,-3.1490073017975617,-136.644394265387,2.269707180129475,0.17228189599644186,0.7827578573256833,0.9578833654928156,0.4104665017579614,0.2804329781710278,,
2.881616000000001,-14.890174485734018,-0.14290766669317959,-135.2030171553645,1.1919053429926176,0.12301202061360016,-0.1644671692331111,1.2058688265744444,0.33486425394606195,0.18884353521574454,,
2.891128000000002,-19.37702456346976,2.906354922914224,-134.28883527607945,0.9019502934634446,-0.6923808827715257,-0.09173051234036324,1.0651228599542024,0.21205267456447996,0.12593506645635738,,
2.900449000000002,-24.31286322530937,5.270027325960425,-133.98377183434718,0.531134622225315,-1.6012140065212137,-0.33176211938996125,1.0247556474394104,0.38171206061681145,0.05274053739529942,,
2.9099509999999995,-30.5487497982249,7.04402154383688,-134.6886066499741,0.21930519766904816,-1.6479600812486161,-0.7273938251453351,1.1215155492207272,0.6399856270421023,-0.007000762380082587,,
2.919469999999997,-37.717621410085364,7.831999295749064,-135.45605813283245,0.9497756140923076,-2.2674062150658263,-0.27997375411550823,1.1190865703669362,0.8936644972846578,0.03240507499692422,,
2.928976999999996,-46.789978156500744,7.57893179129457,-135.75513936640783,1.7162953709709985,-2.9872270136420718,-0.10741035794678887,1.2509666129582282,1.2955610928515684,0.1838209531645218,,
2.9385270000000006,-57.712519004609476,7.080859252364581,-135.6644277250031,2.21661089606094,-3.2074103822984235,-0.2295042281771624,1.4833216586225824,1.5859376235458842,0.2971299795337324,,
2.9479959999999963,-69.29730524433973,6.841617220047294,-135.10108127614035,2.8554189287381706,-2.698125446820455,-0.9847599702595854,1.6054693639940776,1.6512633399465382,0.3935297762413135,,
2.9574969999999965,-81.50455207762982,6.962212331408076,-133.70332451078727,3.5909212817648344,-2.658603795749045,-1.8444119568612873,1.71507338707499,1.7169219581863004,0.5725053500032021,,
2.9670109999999994,-94.23415338734539,7.7459903355918,-132.64814772759854,3.195304747034919,-2.164230953535539,-2.552924877399233,1.8436510705890865,1.7365559601761078,0.5366443062455187,,
2.976596999999998,-106.58852223937937,8.915095279383124,-132.9542087688845,2.6755898191049785,-1.2032541157430954,-3.0456357918511796,1.8340078902398438,1.6372285316424564,0.2973627244169882,,
2.9888070000000013,-118.44404426866211,10.000785855550827,-134.0356231139891,1.8260980605493353,-0.35299270510948905,-3.174999834756157,1.7685966493758176,1.5492642884326608,0.1743180431780922,,
2.995872999999996,-129.65236030680464,10.543920584467811,-135.5727981272985,0.6570414041944754,0.15926823699079304,-2.5359362670381,1.6327654495059325,1.490060684114407,0.09337381275791111,,
3.0078239999999994,-139.64328330934325,10.075001882251046,-137.40978560906106,-0.1101104315637939,0.6593817069099317,-2.055257503393498,1.3626937945392392,1.4226220838612333,-0.008905937914414018,,
3.0148189999999957,-149.1622770652449,8.838230409543781,-138.6728700676535,-0.7064833760103596,1.1421569990530662,-1.4386444343469398,1.2326004564027235,1.4404710529422502,0.060801076950459984,,
3.026758000000001,-158.87955070367173,7.20295137237034,-138.82429881068703,-1.3475376368874938,1.143559715882903,-0.37188961932206405,1.2328429010758069,1.5157388576070059,0.24117906082132945,,
3.033775999999996,-169.03435525366925,5.047899999194931,-137.9509305055627,-1.8517645670419094,1.0859448147088104,0.3513528419571947,1.2254818065697655,1.6642260534982884,0.39129628446623305,,
3.0432950000000005,179.12331572674162,2.8141708828825847,-136.09452331206765,-1.962177474879067,1.084204132114484,0.3230468174572806,1.4267300527846882,1.9386470243382963,0.532817695692624,,
3.0527999999999977,165.15831518937424,1.6079432255773687,-133.62700530902976,-1.6706266937395846,0.7635323401806603,0.2519450492359345,1.8003814295255725,2.149903367172933,0.59939054658351,,
3.0623080000000016,150.42765183376312,2.0255072108052743,-131.50689623821114,-1.1152065196525232,0.9670162553834135,0.4208359427878723,2.055214700607598,2.114640136986766,0.5155695260333946,,
3.0716430000000017,134.88154573694104,4.120544082366274,-130.7421075045825,-2.1181996218465975,2.3130827441968806,-1.0468011114247548,2.3581995332202808,2.066938894295862,0.3189427164364586,,
3.0811549999999954,118.77202452289328,6.376350783590851,-131.13048780113144,-1.9191219845022998,2.242035030415208,-0.7533053219109642,2.443366336520885,2.132256111641493,0.21772164877787728,,
3.090652999999996,103.45235640257755,7.806326938028459,-132.1858231770361,-1.9660297092778316,2.80375553709171,0.153728431218329,2.235648377852245,2.084761631321789,0.1685722968864576,,
3.1003529999999984,87.41786594638683,8.286207671034125,-133.6000830350355,-2.382548284345297,2.9539272988945293,1.5920034525395983,2.233321803417448,2.2637398078861426,0.1680349341482935,,
3.109856999999998,70.43379804069359,7.945143530172983,-134.23499295866748,-1.7150473841233058,1.9045942666998426,2.1937059705373834,2.2861839563507753,2.4720041012855165,0.35389578699980895,,
3.1193799999999996,53.82339709735313,7.346556393611811,-133.64543282344576,-1.0024975827796094,1.113921929689298,2.9880065761635914,2.201764155557345,2.4562737071302423,0.5597440358073343,,
3.128886999999999,37.10897076400485,7.0167963995424305,-132.3612573977366,0.06495721302167408,-0.1580254719933773,3.3459964692739392,2.2170721380053915,2.4733479116063757,0.6737048129093107,,
3.1383930000000007,19.67214013359038,7.628270853934826,-130.72345549960428,0.9119430469695562,-1.4246314216993408,3.381854258524588,2.387937762742721,2.5118054473142357,0.770395933603474,,
3.147911999999998,1.2714189146376715,9.493740974102531,-129.304864927252,2.1672674299048955,-2.708184907737618,3.5256245684830945,2.6268530922762383,2.55294876322478,0.8300982863830593,,
3.1574150000000003,-18.83330634251197,11.835367521530314,-128.7916340398096,3.9131009875252176,-4.461206413868326,3.4470718644953258,2.8531667274827526,2.7806016340051323,0.8467991353490276,,
3.1667389999999997,-40.55707961716864,13.953919844992154,-129.30332407787765,5.69352421521796,-6.168287552181694,1.9222021475737168,2.996782396006712,3.0291189646089034,0.8695704741543676,,
3.176256000000002,-62.70279618072645,15.507706046115867,-130.6534550238622,6.480234823889132,-6.31739134298431,-1.2383111939302522,2.990499124800748,3.0884421931582575,0.8605007038965844,,
3.185774000000002,-84.97711043231253,16.13715644223739,-132.3815813404347,6.452419498151632,-5.280258879357063,-4.4648075084965315,2.936790865400331,3.1295802897806593,0.8741127769515822,,
3.1953630000000004,-107.20443138557464,15.754743702756713,-133.92214947310995,5.4001160113838145,-3.2955271545548985,-6.7242232290220105,2.870797852422366,3.1727019928174336,0.9177637807661866,,
3.2048699999999997,-129.13810240340558,14.66990364783953,-134.80756906507213,3.4416075458308035,-0.8052867694742876,-7.631678827434521,2.8091235477807244,3.1789195013821288,0.9769900587133679,,
3.2143779999999964,-150.10505109586697,13.36164918473504,-135.54159305094765,1.304300333212002,1.249163317016293,-6.801678370500614,2.720996731567514,3.0410707593129978,0.9843298531213013,,
3.223892999999997,-169.86993130905952,12.309103589762849,-135.76253596917854,-0.27661623917038686,2.466257263274428,-5.3273962112129345,2.626587265190491,2.833484180713215,0.943907494023439,,
3.242832,151.54692291164633,10.950183626073393,-135.44979635240415,-3.2840371148774303,4.013446916734711,-3.8110137530526633,2.6268153735355613,2.7757161761934737,0.7552578484227672,,
3.252342999999996,130.67452595376892,9.919244826513602,-135.91490680065044,-5.744801692078873,5.596224369487456,-2.5709802800479173,2.7974476304217575,3.0169352860543444,0.6647201119555773,,
3.2618579999999966,108.82906630374306,8.336046353966731,-136.42218708157785,-7.453786883176971,5.737055193998825,1.3185358877575686,2.898068554868185,3.216334610995976,0.5935268134955124,,
3.2715499999999977,87.07686474852419,6.353570669241195,-136.42326880392324,-7.041346610495642,3.92097058538377,4.7869807671320945,2.870788331174252,3.2514538908283246,0.6386106978841949,,
3.2810519999999954,65.49466489188754,4.938006558159537,-134.15443594866946,-5.231272430029494,1.7619853350166055,7.1651658851864175,2.8596708513977456,3.225112576424301,0.8740199157120223,,
3.2905489999999986,44.01979583911144,5.467274882802836,-130.82048359502178,-2.265832057902306,-0.5743365242108409,8.679919641267889,2.9798380138717797,3.0794180405281177,1.1164539401268487,,
3.3000279999999975,22.609969089116593,8.080042554008648,-127.43299210786944,0.6366511225548449,-2.2842693981462414,8.33724059845805,3.0890014616706973,2.977622222566747,1.1758831380868537,,
3.309581999999999,1.1490375521134526,11.766578197798763,-125.4159832393431,2.308328568364164,-3.7039364652437574,6.895809171722726,3.101746034830508,2.9743395272031052,1.1397418618801394,,
3.3190910000000002,-20.321944931914125,15.957991383645135,-124.86487172458133,3.2551975610693575,-4.783568185620889,4.9535756409901035,3.0817265868384767,2.937063841258354,1.1394067271195971,,
3.328614999999999,-39.20818163857803,19.161696198144003,-125.26703365735632,3.253281347467639,-3.4840610028619805,2.5936932160685906,2.591984906125305,2.5861835407805507,1.0613438238513195,,
3.337921999999999,-54.35914900096358,20.166668365935806,-125.51721940223523,4.500768309180867,-3.4613885815706413,-0.37122195488942494,1.8176957051967793,2.213036468737447,0.9711021538553873,,
3.347434,-72.19382528495274,19.878364115644114,-126.39366759816689,5.6242875773056475,-3.3005595367974,-2.4667552125568175,1.923460875964017,2.749222240857218,1.0484796289218583,,
3.3569630000000004,-90.40502992668101,18.6509578332069,-127.0946731444042,2.139544242530888,-0.9044104210692571,-1.6858994761599606,1.8637808310253474,2.903749789436272,1.0637386893346643,,
3.366469000000002,-103.50157566866584,17.315812588917307,-126.28538244821523,3.4888713428832743,-1.7691796187258555,-3.174036204233331,1.2767913919004705,2.1591965119462104,0.970911785686802,,
3.3760559999999984,-115.87839321797242,16.227397202764994,-124.68925973572644,1.5176299051057354,-0.6764384372159646,-3.6834275878378837,1.2007091592310835,2.0582640372618473,1.0334010595526775,,
3.385573000000001,-127.91852271345387,15.658134732759033,-122.76649867178945,0.09423028585786046,-0.5503895706509349,-1.8688327545994288,1.1926632080817856,1.991127796584031,1.0457068542168013,,
3.3950649999999953,-136.93380704677543,15.891992392669792,-120.75003294412241,0.7216701404660811,-0.5104746706579635,-3.1041645214842823,0.954032451524813,1.452486569337055,0.8935872801828396,,
3.4045890000000014,-145.5976914322126,16.52812293974289,-118.96023796439133,0.31729338061172874,0.030360449274618624,-3.084341082759419,0.9394825985897653,1.3813999053377566,0.8418761027942292,,
3.414099,-153.86214305623125,17.478531176546827,-117.40130558390136,0.07583891751026389,0.15073510923254127,-1.13629327127048,0.9147459447746906,1.3050642384019415,0.7954127614848605,,
3.4330379999999963,-165.31752410209427,20.432190686489612,-114.67005413287747,-0.0160173308741086,1.2782717164844808,-1.438721236050736,0.714951888361002,0.8013385892382434,0.6282948061727679,,
3.4423639999999978,-171.22932699619204,21.80714022330434,-113.57677205740897,0.055945419232913546,1.2866932151489696,-0.5347486368404941,0.7023210722026986,0.895216756230517,0.6451118046764733,,
3.451881,-177.16657508162436,23.078168136764727,-112.92551705946921,-0.11708791323529491,1.721789262721792,-0.6503607544855322,0.6673391759974125,0.9089791034124944,0.584003453833406,,
3.4613919999999965,175.16184317112769,24.222127693080324,-112.86452391532202,-0.7048411600795221,2.178964548312788,-1.0087731881902815,0.7580128991529687,1.2069468952557405,0.6282368851304537,,
3.471080999999998,164.30013154286883,25.042565536654816,-113.53248085721367,-0.9875574746041047,1.801195104513035,-0.6172374439851054,0.9290548443634794,1.7520151010171656,0.7728354405367452,,
3.480596999999996,151.05785257779172,25.190613105725514,-114.9903798303047,-1.7205369085623101,1.8030209844805323,-0.9474168532206684,1.012958728126914,2.1757180058746015,0.8343913294416948,,
3.490099999999998,135.33602418782283,24.42440038903789,-117.08493795104935,-3.778960775608165,2.6992317964458623,-1.215087883763661,1.123032289936007,2.630509807444831,0.9579431863991541,,
3.4996110000000016,116.84240632487183,22.82475061873929,-118.94605707482604,-4.632969019980193,2.471884285656195,-0.24208382127397712,1.3273465558901676,3.136936649291075,1.2204369725203785,,
3.5091210000000004,98.29502770518289,20.602456818240835,-119.44902670525794,-4.513086231113512,1.7337102549235928,0.7843295046364213,1.3159198615440826,3.219666446712282,1.4008473564798216,,
3.5188069999999954,80.45061120256688,18.515823872801388,-118.51015480973463,-5.84730231051268,1.588846520504151,3.342984565897671,1.2873352942459748,3.1394569234429683,1.5154330483050693,,
3.5283140000000017,61.156613501167165,17.24668676205566,-117.22442871651415,-4.331783634608168,0.08933946327705991,4.8508173924804545,1.5176166913357192,3.3597142341060766,1.5834987295146692,,
3.5378240000000005,42.0979707795042,16.835086274721483,-116.10067231772481,-2.256190469507983,-1.0387864463952154,4.273861062358047,1.5847080713014776,3.2888508697081704,1.4787267164900484,,
3.5473360000000014,24.31562023649065,17.143770678808277,-115.46052310669387,-0.3238289881214281,-2.0426737801180863,4.818948034623814,1.55244742495039,3.0323058682315094,1.28638490118821,,
3.5568589999999958,5.609507945980795,17.778878714302273,-115.81724061261704,1.7631310757780554,-2.532265273774165,4.243905111118966,1.6728309853232186,3.160107543411837,1.1467787209973097,,
3.566372000000001,-13.55323575812527,18.25319343558448,-117.19944053036791,2.9174410067239855,-2.4145560979255385,2.927859714742458,1.7231241179196055,3.2175405657026004,0.986011535938113,,
3.5758709999999994,-32.384028337081865,18.26756414649466,-119.0381769740831,4.894274298781288,-3.2022776829422606,2.440858831414633,1.6943646532131365,3.1538068104767976,0.8488453444050797,,
3.585208999999999,-52.03774611195352,17.406906721088554,-120.51024178381643,4.967688432063095,-2.4971456776064573,-0.00882088338722373,1.7119317732148265,3.3358365704229467,0.9134090613760316,,
3.594726999999999,-70.54507020083919,15.91200666420252,-120.421785700498,4.299921409091335,-2.252135835766616,-1.2886942639511345,1.5443429723757198,3.2106282221827516,1.0799474335082084,,
3.6042249999999996,-87.28259179148766,14.969731163115865,-118.66759447993255,4.239589096948512,-2.1201317903389283,-3.13435668479849,1.4301766612134097,2.9033899164116526,1.2410995149479849,,
3.6138130000000004,-104.02321810422411,15.160880703595407,-115.91937913004027,3.5427921827208064,-1.2859311334465124,-4.299727970382701,1.5184008324564273,2.8599511494361045,1.417728169185309,,
3.6233220000000017,-119.97246275335937,16.402154915182923,-112.79585745963853,2.928088495984067,-0.7991606758611962,-4.436447681235333,1.492922948723395,2.6987586401204,1.4900462030951809,,
3.632838999999997,-133.91767421468433,17.763060003742684,-110.50803297253393,2.182026590035398,0.016637917562675766,-4.719523326778769,1.237032810074142,2.381094023351828,1.276070589621118,,
3.6423479999999984,-146.34146503069852,18.429280425445874,-109.18168399981273,0.5400807085487277,0.6529201681019225,-2.383153269521401,0.9276778874683814,2.1789690704044564,1.0371449596679494,,
3.6519660000000016,-155.51897035280845,18.964008620150462,-108.09869716440161,0.20927678599771335,0.23686205407926522,-0.6582450820726311,0.6575323087482594,1.6150052739121339,0.8053411734692597,,
3.6612949999999955,-161.11512890972782,19.29617851563939,-107.50048452905241,-0.1678767165169932,-0.09810679154064735,-0.9955817263878359,0.38683404804391697,0.987463931233278,0.4868085603213174,,
3.670794000000001,-165.63499097499331,19.23392347948837,-107.71068313371794,-0.38558026185913574,-0.4275565058498729,-1.0579677987353793,0.24646727787811973,0.8178914228815249,0.2564673155149092,,
3.6803079999999966,-169.63287152621805,19.58261635445068,-108.89348483190103,-0.4082284783511928,-1.0959862588010385,-0.5747511079433927,0.30330110559658946,0.6947009324162514,0.02922242042523264,,
3.6896410000000017,-173.18280370321412,20.541104402645214,-111.26186487889954,-0.7272007580714153,-1.0241206630301096,-1.63722625938859,0.4093729912442548,0.5610567040788066,-0.23024921638846532,,
3.6991510000000005,-178.34563103840625,21.492750092855452,-114.71999802616895,-0.894111565100962,-0.987157729457844,-1.481470045350309,0.5521180970853412,0.8136964372487675,-0.3212527247833904,,
3.7088469999999987,174.84822226232026,22.752677255657797,-118.84744470451979,-0.6947858053277083,0.10167008726542114,-1.2806726653480345,0.7936691520059003,1.0131162965955558,-0.3123700162279282,,
3.7183549999999954,166.17803544052504,24.938651990249152,-122.34715646287005,-0.7420044819341326,1.0180035009101178,-1.2748604373670007,1.1750350042740396,1.1530455657408638,-0.17493596077652648,,
3.7278540000000007,155.42255361951788,26.72169341240019,-125.78208540663756,-1.2321473777761778,2.217059123673335,-1.3489138755465708,1.3716528561487698,1.4138127528670832,0.11640905480618416,,
3.7373619999999974,141.87307867219934,27.419568544375913,-128.50646474183588,-2.838017191097781,5.135787848126408,-1.8397757940755015,1.5613347744524169,1.8467662992627785,0.6006040319147309,,
3.746882999999997,123.7887072681763,27.63157179247365,-130.7263202362134,-4.114579388953029,6.240355931222697,-0.39243414451794423,2.0772753742394876,2.4465078870092056,1.2185156426684018,,
3.756402999999999,103.01589156014573,27.476842074717887,-132.5753362028341,-5.304685279997925,6.004447030416966,1.3829682537413492,2.430428480481824,2.7708936474243693,1.5889749331144072,,
3.766090999999996,81.9262993868351,26.79974574933119,-133.22262730184215,-5.157928014309847,3.8729104390521774,3.6765484574953105,2.464515422205362,2.839147083461205,1.8388880326755659,,
3.7755949999999956,60.86171321101181,25.89560710894331,-132.76435070871403,-4.394930976867227,1.5889526505606861,5.329318168998914,2.4531521562791023,2.8817688303165405,2.0122589668064337,,
3.7850970000000004,40.14521040406071,24.831114724708364,-131.62195359168408,-3.3755314942316343,-0.6421185043609585,6.022552724397919,2.3698259308312744,2.9136432899883293,2.062818226950895,,
3.7946120000000008,20.72579108951591,23.96726914605755,-129.61240564528214,-1.6623138944959035,-2.6658346189631836,5.248156453617565,2.1826731223076536,2.7964780826220736,2.054983577347154,,
3.804122999999997,2.675355055918533,23.832771888250488,-126.9011260883103,0.30570253027562827,-3.942860295693563,4.118207691118227,2.0286987140980766,2.6114741211771078,2.022522315173665,,
3.8136239999999972,-14.710364368407793,24.229811318910404,-124.11274927768115,1.9098009136899883,-3.714761600900348,2.455069722241109,1.9096602368655664,2.54598742928851,1.9504078327523096,,
3.822967999999996,-31.20786943872238,24.68251563163002,-121.78998937448084,3.1590495501556273,-3.36181810589763,1.5191841251720495,1.7063087830467079,2.479419999460231,1.7782535016445173,,
3.832468999999996,-47.28024366723568,25.02182670034476,-120.7638061247556,4.255215833861508,-2.7068952510933846,0.42185479075607046,1.5741491593746442,2.461382675891314,1.5569569820744718,,
3.8419979999999967,-63.32609551720964,24.709663314212204,-120.50679791740849,4.590068174339138,-1.8458362547847476,-0.6612114434879369,1.4320808433021563,2.54001126325836,1.4022036120622643,,
3.8515019999999964,-78.68222856836553,23.570317755970052,-120.20457333929029,4.37880581677571,-1.3833669184995605,-1.6159274238361219,1.2223506015031227,2.5359590598567032,1.3176628518448075,,
3.8610339999999965,-92.83815657903719,21.985494286145197,-119.51326391908539,3.5575653338411364,-0.8934216724621228,-2.4151009964409744,1.027334833947946,2.423888980906559,1.2351184947188698,,
3.8705950000000016,-105.65461842302892,20.391537538485018,-118.31257026683747,3.067796765904575,-0.7630351952861832,-2.946125144922287,0.8786380288281506,2.248445719373168,1.166942149995485,,
3.8801130000000015,-116.96533939903487,19.107391190565743,-116.841290253152,2.1781147036500186,-0.5673834896978812,-3.01500372143946,0.7595580557109527,2.0081986302792902,1.0588650492210292,,
3.889629999999997,-126.60079463461167,18.273772350167665,-115.41001696314343,1.3072945844573085,-0.44557168287114585,-2.6022225558996293,0.6551685135299273,1.7141999771935303,0.9040896064323176,,
3.899130999999997,-134.19794959002823,17.92064641458248,-114.2687093580848,0.608015064405098,-0.41015918422829534,-1.9679353188193938,0.5432402302743904,1.3417309854512467,0.7006278686414814,,
3.9086439999999953,-139.7944178623254,18.12068185375272,-113.53117874589773,0.21109692764294796,-0.36349240525150933,-1.693027029836817,0.468240406538889,0.9578897077712935,0.4941504125909612,,
3.918072000000002,-143.82711560666377,18.950554888216562,-113.26398425018515,-0.2462614104568652,-0.5637780880652743,-0.9650904115126105,0.4564184279143833,0.6365392531297674,0.31012059844200657,,
3.9275829999999985,-146.15919283016973,20.388317367398674,-113.66711393204415,-0.31470133693271635,-0.5943402616966312,-1.084560956411959,0.439128911025729,0.28862851404483175,0.07646287526316813,,
3.936914999999999,-148.24662166568783,22.27134491875348,-114.88744448066025,-0.2736386907475349,-0.4695098184149836,-1.0638577521564856,0.5037585071387631,0.19980183385533354,-0.09225297474310841,,
3.946627999999997,-150.8935673321665,24.577781368251436,-116.93815572377774,-0.4091742759872304,-0.4191231256009492,-0.15160422389256678,0.6278704859245964,0.23551241805355863,-0.19976629354850692,,
3.9561360000000008,-154.32641929135616,27.304280056859994,-119.69747133832884,-0.34633228963248786,0.39690575229743097,-0.027132066728511706,0.7736881196818877,0.28508124007620667,-0.25153171729577045,,
3.965804999999996,-160.15081757922067,30.139710870447875,-122.89387605560707,-0.38362550950683383,0.7141237453338724,0.9913322814147433,1.0158765452921483,0.57897974197941,-0.07901088020026557,,
3.9753079999999983,-167.8336812467274,32.545128086538284,-126.40149263480642,0.09189671384036074,1.2892827008862546,0.6215543152528419,1.1422824471581061,0.8069876670839851,0.09866303968515537,,
3.9846429999999984,-177.2735297094899,33.51414358653745,-129.97544928752973,-0.026365086756057483,2.4130846763619815,-0.2647388717975865,1.131284231167079,1.1251073744906455,0.31566669913308637,,
3.9941439999999986,170.77421730824128,32.999413434195795,-132.02992682005492,-0.481547537812686,3.4600286809194714,-0.177499060548457,1.224634331231964,1.584485187428,0.7566214354728709,,
4.0036640000000006,156.50877486176924,31.637863223288235,-132.866904060503,-0.9656579635774942,3.5764695092704666,-0.9602813662412852,1.4189427810318376,1.97011792123534,1.2512026831084149,,
4.013173000000002,142.4021972796894,29.356272277032705,-132.08192771626173,-1.1005924374029212,2.746907198430949,-0.4654500385865148,1.299129601835737,2.1073805586537993,1.4939464697416847,,
4.022687999999995,129.22535796643538,26.911529189232464,-130.34695169126348,-2.401891398320739,3.271706127898963,-0.5654798022703271,1.1665613168505353,2.0718034225734376,1.5901445104685876,,
4.032188999999995,115.21536578956443,25.079717102383366,-127.78675147929552,-3.3254163510061465,2.7968468903507153,0.10659568635981602,1.306191049662121,2.188489970865008,1.7399040551609433,,
4.041708,100.33770786996824,24.15727458957249,-125.1703980382561,-3.115351133202774,1.5795366807254247,0.4838629158884356,1.4630096526589524,2.287677226900173,1.7621948464785497,,
4.051406,85.75060613530748,23.89535842500691,-122.88982061539315,-3.4309365537243166,0.7184207195022253,1.100677355328379,1.4502542139560106,2.2407907283221453,1.6436311092723142,,
4.0609210000000004,70.74704938670162,24.03566740355333,-121.17686385807185,-2.923145843766472,-0.4176220722874213,1.8762390057381322,1.4802130768080264,2.31300066470868,1.5614897981060196,,
4.0704119999999975,54.92056460629662,24.26499129730762,-120.56338047456205,-1.8092517635133456,-1.265054448704097,1.889712405359345,1.5324137300861538,2.453249762985486,1.5047873435785766,,
4.079921999999996,38.752122433637275,24.268985231349532,-120.46705853019466,-1.2118432119447513,-2.00122541570275,2.5517471637566094,1.5092466669604068,2.5367775026400623,1.4372093692472852,,
4.089441000000001,21.415147221331694,24.03768703947053,-120.15552479734342,-0.12542281895673496,-2.9736336355700006,3.2106955865768865,1.5591654899272107,2.75805771414055,1.48251895732704,,
4.098954999999997,2.5446865582475042,23.66885396202749,-119.84575399097704,1.263771362776646,-3.960671659143448,3.738359672530326,1.6647796365051906,3.029797269073893,1.5896956219578886,,
4.108454000000002,-17.531538262668583,23.263315034779044,-119.42798844679955,3.450470403551695,-5.177185922358024,3.9376369097721793,1.7539073785312218,3.245383525869638,1.683822908705572,,
4.117801,-38.67596359918526,22.99427725043967,-118.97558838639532,5.959193574930504,-5.638199452786545,2.292475770983549,1.853410288338457,3.425249585004806,1.7528547848756426,,
4.127300999999996,-60.31818187681294,22.92205595109402,-118.6325814550811,7.039924190336128,-4.737613424895543,-0.3966372871089966,1.9102278249322218,3.5037897826470332,1.7583411716067059,,
4.136823999999997,-81.41031993374725,22.972015864161364,-118.27150458359178,6.7461359095604765,-3.1456669869234726,-2.944008518855391,1.8616552452155855,3.414858732234077,1.7181502388383176,,
4.146403999999997,-101.44007231869536,23.221383535272363,-117.79301241961328,5.3965778586277615,-1.5627514059981598,-4.899751071271607,1.7774259671492045,3.2331671725025393,1.6681400927705967,,
4.155918999999997,-120.5937129641366,23.824497999002855,-117.51883518438002,2.8670245685032536,-0.26863524859813304,-5.336792599272746,1.738058112317218,3.0589336466394195,1.584941956957846,,
4.165413999999998,-138.52781499090972,25.05742652888072,-117.43027015121787,0.8382044841078307,0.635095530549714,-4.602242842763172,1.725293148162055,2.787058267855499,1.5031538597729655,,
4.174928999999999,-155.55507026204336,27.23773766867013,-117.51974460012805,-0.118344016525994,1.4126032755648075,-4.703063080401888,1.796253807980026,2.514861389634188,1.484410355063983,,
4.1844329999999985,-173.13124805903038,29.91243950399237,-118.25735894746887,-1.0954831615623326,2.5016986577285194,-4.416704593371615,1.9148354878945906,2.482292442406089,1.5362576773767556,,
4.193953999999998,167.85624469194764,32.733162666779535,-119.77514551810009,-2.0942954001951475,4.4320558305435895,-4.00316289072438,2.065871241631947,2.5710187032703042,1.6768803356299624,,
4.203384,146.61536550089352,35.53451615591109,-122.00780505633846,-4.03081481591603,6.8906754357866795,-3.0569207382675008,2.281590848581463,2.7341448719774664,1.942652995762361,,
4.212894999999996,123.5382602304398,37.70766647351943,-124.46799790916029,-5.980784515935006,7.186282115680378,-0.1529282220679829,2.3895495619421645,2.8638525685751497,2.267641728029172,,
4.2224080000000015,100.48528982408598,38.86545628723009,-126.47947806402522,-6.573710098766096,5.655417458174531,3.1320330951409088,2.286976321306527,2.8155704806137214,2.46022090825153,,
4.2320999999999955,77.33606203266248,38.86117933497046,-128.62348261937032,-6.177624893647369,3.384987043257124,5.1746352940911065,2.19718162594312,2.8595715011027534,2.4825661683922045,,
4.241613000000001,54.58131026729482,37.20512617930834,-130.16883998650056,-5.497635569326986,0.37942596636710724,5.991028424095617,2.023772299011217,2.9795343661170066,2.500595868381256,,
4.251117000000001,33.286253649955775,34.66502108084954,-129.303937322496,-3.8243698016569945,-2.3376157790462373,6.468660852604453,1.8212014250131523,2.9775710412554135,2.6746917702506803,,
4.260622999999995,13.181774389707105,32.23658822674224,-127.04299191675271,-1.1161012734153395,-3.9384281145881572,5.642339804480543,1.7153628448344567,2.931876378703307,2.7922367441423086,,
4.270142,-5.62329805379426,30.787504836183814,-123.76494660182203,1.3425730999980818,-4.786243090615694,4.4331244261487655,1.6385834743110144,2.7800775677250855,2.7118626919547935,,
4.279643999999998,-23.97805433444626,31.07321343372231,-120.87664676658564,3.735715049652666,-4.661283660974987,3.1863634749389362,1.7404515514451204,2.6329564470297147,2.509652580838594,,
4.288972000000001,-42.515204452273004,31.96448780948992,-119.54258959795125,5.145391380217353,-3.1929754529975796,1.3473672127342562,1.7476961522605454,2.6453841692542093,2.2226628473392256,,
4.298480999999995,-61.08124836487843,31.960536288715346,-119.66551835404833,6.47816246151291,-2.7915079320170477,0.03542218463873677,1.5573798538166437,2.742612610415062,1.9435411103857292,,
4.307994000000001,-79.47282835019077,30.570266113249936,-120.7527439675903,5.773196063786892,-1.5275082241767526,-1.8011988373719006,1.34498831453873,2.858447392580751,1.6949806371689606,,
4.317506999999999,-96.35784544709766,27.833409843685573,-121.43900405688535,4.634003852240795,-0.848559121705678,-2.960948234146786,1.0581992512419733,2.807813836141967,1.5128917720073014,,
4.327095,-111.00887413868844,24.45588868516367,-120.93093535033267,3.0612164532673236,-0.7200803210990797,-3.5956667824717052,0.7882072477219241,2.6015229629038013,1.3938729290474865,,
4.336613999999997,-123.45361628860694,21.147793257102133,-119.61089631701415,1.4368981083411392,-0.9218553216538462,-3.469634763813045,0.5881113647713744,2.3169363467548356,1.2289480233200554,,
4.346119999999999,-133.50535045592292,18.479344454974424,-117.91513083398034,0.10964434252258909,-1.1383613000068533,-2.5571221562230955,0.44387456810410736,1.9165978289645753,1.020785581508573,,
4.355623999999999,-141.17391789422115,17.175769163992534,-115.98126691145097,-0.47283703097700297,-1.4065458293374349,-2.04462141931921,0.4300181634404892,1.4211938752590927,0.8566215842778281,,
4.364888999999998,-146.87877132061055,17.404636922910928,-114.35689140409661,-0.806537348471781,-1.77021184448059,-1.5202167356407723,0.5052340637656009,0.9675657046412827,0.6643927536958194,,
4.374395,-150.78217155808903,18.980031884309266,-113.55913160596467,-0.8983598825257275,-1.7241456388157144,-1.244257552249152,0.5896507352692781,0.5503928208385392,0.40362865061027003,,
4.383885999999997,-153.63268528136518,21.903364468957516,-113.66037165349967,-0.6375787791535971,-1.2849359683790975,-1.635778600672902,0.7504663549666634,0.25558550228642835,0.17906819957663814,,
4.393428,-156.88200969175088,25.862358834781332,-114.7204960840427,-0.2390394189586854,-0.817536747877976,-1.360756067347907,0.966749272683145,0.21784498445934222,0.051297476670771606,,
4.403193000000002,-160.9363610687894,30.37972992231258,-116.83186160663037,0.3183329405648448,0.39901533737918504,-1.4936812316133907,1.125591723740166,0.2514718007773813,-0.039724381145928314,,
4.412624000000001,-167.5095294674037,35.00942187602331,-119.8441443729363,0.6737024221643337,2.178743453162722,-1.3816925822982566,1.3406972250364935,0.5351536831335826,0.10862204348158794,,
4.422132999999995,-177.9993097255944,39.124290258914435,-123.65943813978363,0.8721895768879362,3.719475310828005,-1.1664856052745072,1.5799754586601251,0.9921080881737988,0.5036939454567736,,
4.431640000000002,167.5584560506963,41.61547891997103,-128.3395911472596,0.4766953443393108,5.924019390554391,-1.557851030631585,1.694715275786439,1.4890495063499445,0.9386767766917715,,
4.441136999999998,149.070470532783,41.614375423851556,-132.98265130224095,-0.32337534913033145,5.764429518574595,-0.04920205968199968,1.7961909978448776,2.0999498408751545,1.4876508391010859,,
4.450274999999998,129.59075418171537,39.351052564056666,-136.99609101662807,-1.455915401252998,5.892912942412996,-0.06289626765957677,1.7774808358943468,2.4124953798646676,1.733141543158512,,
4.460152000000001,111.5986377695881,35.082919248071555,-138.3925675293681,-3.5627103292359785,5.5234744845221035,0.7694123639877125,1.5542539623103178,2.555087782543337,1.9327954975605106,,
4.469678999999999,94.77148221265598,30.211031083043597,-136.06533690137888,-4.507802388709563,3.4076607099557528,1.723700211121241,1.426142154448399,2.639475644713423,2.2814890838145043,,
4.479368999999998,79.59856600355042,26.211609056165823,-130.81424301927586,-4.341865344074926,1.3723369931586034,2.1148132670030857,1.2647686447518358,2.494866200019902,2.4826113520156006,,
4.488869999999999,65.62138412982753,24.08448643685211,-124.78727380067464,-3.8461544957690874,-0.20737665343355347,2.9733433529969293,1.219767553519084,2.2646896416602216,2.3909680711219266,,
4.498379999999997,50.885605967748944,23.980933700416244,-120.1711017122846,-2.997085078795721,-1.8462870877555477,3.2955716358597047,1.4342118020748555,2.2848966945488427,2.15075555272832,,
4.507897,34.961300514245636,25.675558555857247,-117.25912913691445,-1.7691790184427338,-3.030350596319589,3.6819923633951186,1.6884291466458465,2.376856108752232,1.9297839942754393,,
4.517403999999999,16.928664022903444,27.90466978995097,-116.85252512178542,0.06694447674646804,-3.8571825099267065,3.6098546644610554,1.8607022294315445,2.66971273183127,1.7084494844320646,,
4.526913999999998,-3.524889101293608,28.95536700379797,-118.74272818466,1.6466375340589383,-5.006470246498532,3.653683226333905,1.863123109965822,3.0878710811210635,1.574692483252929,,
4.536262999999998,-25.317184557076256,28.29505712833516,-121.47644846091494,3.517501533456744,-6.06520452270202,3.0066187941443743,1.8105359921955226,3.375492189689229,1.5687274412824694,,
4.545763999999998,-46.94879327117174,26.09314150769633,-123.16404842517883,5.4413626058966225,-5.990227852966007,1.1903381669983493,1.691209564805971,3.4876617590130063,1.6450531491981313,,
4.555272000000002,-67.62868683331756,23.21463608520673,-122.80728455266346,6.026622122482705,-4.719797492129245,-1.2231000067901567,1.5709590438329493,3.46778111545122,1.7981998598852935,,
4.564776000000002,-86.79216120546091,21.07979033303941,-120.91124486137888,5.100732295774887,-2.8693686127487807,-2.8936143422465475,1.5167995069131694,3.2435321475030174,1.8230475716205492,,
4.583874000000002,-120.37611397036547,21.366053556552654,-116.05328191479848,3.269091122495615,-0.30247175092157014,-4.8329615506484105,1.5568094790876796,2.6324907404053715,1.6147338859995584,,
4.593378999999999,-136.57910911023916,23.16118235622561,-115.42410004990562,1.1358979986582323,0.42552471149445004,-3.9044610135174467,1.6255146422668683,2.5494209302622894,1.3542597062088249,,
4.6029160000000005,-151.91276774490214,25.54093080140293,-116.35046953519849,0.42817314605553675,0.8998266291156479,-3.7989045697271697,1.6470200455863415,2.308941070829775,1.0812589800052428,,
4.612411000000002,-167.17261997337474,28.123104094767193,-118.61160957378911,-0.44882014656124963,1.547565629286826,-4.072240869748796,1.7134461456890897,2.180536497626837,0.9284613651666128,,
4.621919999999996,176.4718937147439,30.15448252040447,-121.96501372212114,-1.1974675051180275,2.2526751751856375,-3.889275538865065,1.7902603950512734,2.2644334322692607,0.9264594401559765,,
4.631433999999999,158.92786266133604,31.658919267955227,-125.96192073248766,-2.0944901423291227,3.907161218199346,-3.785040847061713,1.9299387595138817,2.3305774527060072,1.0083818343632942,,
4.640858999999999,139.11471699251686,33.09558295887529,-130.52080558073754,-3.795479178921872,6.280517620422103,-3.008884010270425,2.294798594592231,2.4522480491530745,1.2177839593829145,,
4.650374999999997,116.38514208281342,34.15326238236206,-135.5127024053102,-4.85939011096338,7.1189676540451465,-0.2576645339782976,2.7340749705182947,2.6243918159219812,1.5294961840910954,,
4.659889999999997,92.16682666378773,34.440099552401385,-140.57016778185795,-4.719866348558673,6.62183060450776,3.2292130171029454,3.0120484108819827,2.632306944843747,1.7299939132477409,,
4.669584,67.82425858459196,33.72309968280125,-145.14185293933,-3.8755441087809728,4.809770077817392,5.9912144358725135,3.1281528311585602,2.546879812960777,1.8255970249862141,,
4.679085999999998,45.04271564565816,31.892066470319257,-147.44096889852239,-1.9214133594730407,1.5698864390548957,6.038424142000779,2.9895228456964063,2.42412397716863,2.040636091206768,,
4.688597999999999,25.850526228515008,28.896223427332014,-144.89190897021382,-2.073688057152244,-1.0318745666523752,7.0548067130946475,2.427113885560842,2.3390494472514933,2.4730304607658886,,
4.698107,8.7983423140202,28.090464341578237,-138.61055928888496,-1.1916447605191631,-3.601634940874002,5.282553738454827,2.2618653133473936,1.9873523510494302,2.8792772569319007,,
4.7169370000000015,-18.16320650860477,34.32683379102965,-125.37620405699978,1.3340980471812018,-4.190714057583036,1.1861665127109988,1.865146814235983,1.1974639743775568,2.4135868595045675,,
4.726455000000001,-31.230834793110546,37.85592603586412,-122.40534733367257,2.096048985266137,-3.8220713434006823,-0.07532274499291519,1.7562647673511147,1.3743896469492791,1.9996732918004216,,
4.735959000000001,-45.95063692691452,39.78016904691315,-123.84077461169791,2.6032839120437705,-2.4326580967202647,-0.5853312953733308,1.5755079992103345,1.7134944867808388,1.5614218050316375,,
4.745474999999999,-61.000617974854784,38.00897628984826,-126.73339951384361,3.287124007874348,-2.168162411294977,-1.014215311935572,1.0665204149650394,2.1170128205754373,1.3152481525994504,,
4.7549959999999984,-75.13593274998682,32.98932608016569,-128.88468141754058,2.98340752901949,-1.6538778525362479,-1.4740782815850801,0.6226148082391431,2.433157843772735,1.2150233246325643,,
4.764510000000001,-86.55810989117377,26.412374527862767,-129.13559213224983,2.2913881654445736,-1.0270879294699131,-1.4457015406280482,0.23105602363144007,2.370647778317911,1.0835568372997255,,
4.774026999999997,-95.01525534122001,20.049393307998592,-127.22961800450106,2.18891502749889,-1.0452609380818987,-1.599739414605371,-0.03748703055750029,2.010405217114698,1.0486705781282577,,
4.783516999999996,-102.08508794587216,15.225589955433867,-124.58595915119048,1.6938198554731705,-1.3628244817571809,-1.7502342405455968,0.009877990796763323,1.6591564103599974,0.957221454284971,,
4.793034999999996,-108.7008439886209,12.501674670225267,-123.03931349200187,1.0263055647737436,-1.4155053063195369,-1.5457493419598825,0.26294852234937716,1.3719032005519374,0.6265930390586066,,
4.802562000000002,-114.33982038546229,12.042363903804954,-122.65945237853343,0.2577094115260765,-0.9725466989209902,-1.143554486417084,0.5193390088062927,0.9775984575337755,0.2728082592318201,,
4.812038999999999,-118.41775226988673,13.734681635386062,-122.74184516398213,0.19855207931962282,-1.148269797079128,-1.5370261686153206,0.7125804689541408,0.49028366450457556,0.05063150928088541,,
4.821647999999996,-121.52912192623155,16.58043231178266,-123.72256491709908,0.03463010697465154,-1.0878017117679266,-1.9789010622179408,0.804694138823068,0.1965762124282743,-0.20117239324345798,,
4.831154999999995,-124.34411305670478,19.60967682123701,-126.60420463457747,-0.38660397928586987,-0.3810726644422977,-1.5890449491105403,0.8044306066206964,0.0886246918373652,-0.4015427347693384,,
4.850282,-129.32443229503863,25.628561428752484,-131.7184675597665,-0.4200270429814355,0.5145111674538104,-0.4531049630902976,0.7330194866550523,-0.06141860549737121,-0.2550046140535428,,
4.859783999999998,-132.09143718410033,28.16902238014961,-133.58163660171684,-0.37537666371345974,0.7815768079971681,-0.23911189778442116,0.7088376166426096,0.018701626238586556,-0.12220598656314552,,
4.8692959999999985,-136.17356456607513,29.942140822653442,-135.57902884113673,-1.0816068912536754,1.4441179045825625,1.3413653769747176,0.7542099761289649,0.25963430904393114,-0.0027781523689633008,,
4.878813999999998,-140.94752579130173,31.419152132550543,-137.43524167941806,-0.696192983504599,1.7433287757337992,1.6116675864689503,0.7996930789711666,0.35117967772070385,0.11625765114290106,,
4.888312999999997,-146.66078072900058,32.51858832348606,-138.48786423794436,-0.12847159071644218,1.5542324719683447,0.7494048084216212,0.863489933302859,0.4938988494974179,0.19181643990355896,,
4.897833999999996,-153.74360975947747,32.440247174151324,-141.50201071811853,0.1288823713663534,1.837572182759543,0.44754747209660234,0.9059440214398178,0.780702621680422,0.15853867178249473,,
4.907342999999997,-161.98435588380977,31.77590258166003,-144.77240790461948,0.134594975783958,1.6733375723829422,1.0284047692526004,1.0380327369263749,0.9442368493760677,0.22294914388666082,,
4.916872999999995,-169.8999458374932,31.134883203500824,-146.65715108353135,0.20706595176498738,1.3120018766731616,0.6833208370037268,1.0360513888695955,0.8770467892966448,0.2309745289398692,,
4.926023000000001,-177.1809233524467,29.58427578716472,-147.91208347197275,0.212698298467916,1.725755923591779,-0.4538607257421035,0.8805387226778355,0.9497011305067913,0.246803221872641,,
4.935542999999996,175.10904841948,26.883851720207694,-147.998534968618,0.011590438325094163,1.5220398096152217,-0.25084734220330485,0.8537366743489068,1.1880712219696674,0.4738398463525566,,
4.945225000000001,167.620643469031,24.367724731878877,-146.78939534457982,-0.01831625802231439,0.9930454000994988,-0.2132301886415292,0.855193786956411,1.1614140963954553,0.6457352550169423,,
4.954748000000002,160.8677615682373,22.640490386378872,-145.20304231696161,-0.4090577222686402,0.7085180223445818,-0.5620408442744637,0.828272330577497,0.9851019339106292,0.7094978886540803,,
4.967092999999998,154.36929170124574,21.384194750575958,-143.0602773335777,-0.5145260784040007,-0.0859686801010808,-0.29646445946115624,0.8238182661275907,0.91622832876913,0.7551667380994134,,
4.974139000000001,148.7527349764342,20.566000845993543,-141.8646417319998,-0.10586854770263683,-0.9498436344656408,0.18704212187427063,0.7328265111511101,0.769534944843104,0.6416858061986782,,
4.983658999999996,144.73248997320317,20.102519786776814,-141.36990466987262,0.07199904069901215,-1.3215539952831852,0.3599206742278502,0.533973965554282,0.5413052547699824,0.37868662401876757,,
4.995433999999996,142.08815034644883,19.358984180335902,-141.50452656365565,0.3128945579835437,-1.4154984081642696,0.4218916349519438,0.2968235514385736,0.4270249356987348,0.15179310208341784,,
5.002508999999996,141.0320748662807,17.968202501810996,-142.11758300465408,0.7819336349165876,-1.5237223467336884,0.6834261935259701,-0.014762096420386854,0.342737352230222,-0.05502071744445707,,
5.0117739999999955,142.15298429998657,16.21050786723826,-143.2769884919025,0.717911185612503,-1.035681653427363,0.7300443917108912,-0.3839539251686052,0.14999900272313774,-0.29797238456206243,,
5.021265999999997,144.95107148531767,14.43199554057445,-144.73074594215205,0.42685593707906777,-0.602336386900427,0.47443262889729904,-0.6464406628595575,-0.029426509790127113,-0.4389230156098124,,
5.030802999999999,148.88321549770708,12.9380250546088,-146.09579557086087,0.2868059052655204,-0.626765365580968,0.12194758705759676,-0.7994960439659454,-0.1879633415234019,-0.4593589676123713,,
5.040324999999996,154.05673382838427,12.29504674288451,-147.3383377726923,-0.08160255106563503,-0.7822026876839683,-0.41293960709461297,-0.9155716186622296,-0.44708061189130416,-0.4747888308007421,,
5.049628999999996,160.2079308745848,12.766666256762868,-148.42657919995042,-0.6714235534502926,-1.1367376108963698,-0.6739679742954999,-0.9679949817323866,-0.7190251230433109,-0.4848292982604499,,
5.059148,167.08804786526625,14.246308469405069,-149.34425736169976,-1.2540294465801973,-0.6292021282033309,-1.6965643399225032,-0.9937040410472823,-0.9454664547769622,-0.5051894400462164,,
5.07826,176.89297629932256,20.23142097537081,-151.04278407624636,-0.6212582140449359,-0.4054947824381239,-1.5841442927400864,-0.298985351576976,-0.9804683307172307,-0.42396478646318575,,
5.087783000000002,178.73006522117282,24.46080599810083,-152.16261460053568,0.28148204782308456,0.5095821663999544,-1.646149433599984,0.10347257721575501,-0.9068136336784971,-0.36393932314986366,,
5.097217999999998,176.6040113160488,28.58500405287334,-153.5016441728912,1.3999650008039612,1.5875013606855877,-1.0241030400868758,0.7158980241037687,-0.5607829055545974,-0.07786574862453813,,
5.106722999999995,169.84640893526014,32.206548279793,-155.03390950649043,1.9240757515838436,1.4151753538962342,0.17361150729876185,1.3656184842283516,-0.14588624815795342,0.37812224878723294,,
5.116236000000001,160.9248914081417,34.391532953156634,-156.9160416542201,1.9477849826012945,3.240863137012293,-1.080183991780928,1.5409178580011849,0.20887299760888475,0.6042879147321335,,
5.12594,148.10451415330414,33.987631000686676,-158.40225520726486,0.9643189551454328,4.953790208763279,-1.0220838869713882,1.9324165748091175,0.881234735748731,1.145507408446172,,
5.135638999999998,131.86260828483506,31.718969913122827,-159.2537752742447,0.31887142298319854,3.125345710708342,-0.43541399330433717,2.3837506096357246,1.4071178487782572,1.5944589450589914,,
5.145109999999995,116.921309503622,28.23231961243075,-159.6021840446752,-1.075414370936471,4.7300638526321865,-0.8547790822035185,2.1821129038588336,1.5604880842036073,1.425466663380324,,
5.154658999999995,101.99929272401141,24.1439236209294,-158.45838729655694,-2.9374004000763536,4.863429751856935,0.5780951613910937,2.2109049863360264,1.7225533302356695,1.5207841199181302,,
5.166800000000002,86.38656425307897,20.408521998008077,-155.99443464900048,-2.337645063270496,2.2854909217247457,0.9234084367997112,2.3809283339879426,1.806073600916186,1.6757644764627906,,
5.176300999999995,72.48092040725702,17.69643686104873,-153.19882774695816,-2.180102895690323,1.9211920132349123,1.9268256824816552,2.1454678713922104,1.6193029713296294,1.450672203948612,,
5.185822999999999,58.31695828917708,16.438901787233114,-150.86904207893838,-1.7585792674134701,0.8691777019646161,3.3471734902408756,2.2760487320115246,1.4958081500365217,1.2694518181068026,,
5.211674000000002,9.956996014448826,17.585203547732714,-149.60642257166666,0.4701534418085586,-2.2088768043323026,3.873575960182305,2.7869282822906123,1.603762913676733,0.8759539835361312,,
5.221178000000002,-8.589486464363109,17.062763325039306,-150.09684375910393,0.6445847842483599,-3.508560526317801,3.2390731160278667,3.013575553356867,1.87022199484609,1.008526754885416,,
5.230685999999999,-27.191654224238736,15.967805160942726,-149.2516602537185,1.0003735262989089,-5.409948269966655,2.7506481024280287,2.973363129497565,1.9911272788822378,1.2267575225479812,,
5.240023000000001,-45.97666029660167,15.232140085080399,-146.82429539495496,1.9044007359258497,-7.620965571587287,1.245080418223124,2.9976219960598556,2.042591457749803,1.4934390401098847,,
5.259042999999998,-83.51342358780907,17.46746099662183,-141.92102470709108,3.016455085549801,-5.786856120978246,-3.1542332340932218,2.993462540462322,1.8606965290711346,1.4692775588063727,,
5.268631999999997,-100.75115133306781,18.880461161891308,-140.37781022397135,3.780209692162936,-3.586532648316892,-4.750653621524978,2.7305627226126106,1.838790560292656,1.383337094901873,,
5.287658999999998,-133.0957954472454,18.928263528700505,-138.41457601193747,1.8663638618728229,1.091599989355354,-2.7954104403240105,2.128664624584253,1.9483164439806586,1.2085253169657237,,
5.297167000000002,-146.32556173682505,19.304831765946002,-136.40493175507444,1.4436327867956078,1.4723970092039695,-2.8579547976227957,1.8936299157098895,1.638742689145154,1.2680757179795894,,
5.316181999999998,-172.07952430300813,22.873442802138197,-134.6227475361653,-0.3677311551715745,0.8286449125924416,-3.0369768144609743,1.980689902532995,1.4130414288660182,0.9615244789116494,,
5.325690000000002,173.6641095802571,25.651739317433307,-136.90692545824703,-0.966043483355774,1.9055696733036107,-3.5745287841210005,2.2497984494302488,1.4182233614991664,0.7175474817299273,,
5.335203,156.5571903053263,28.987209437652584,-141.65205449920094,-1.5650711633092897,3.7877439211156485,-4.078305066184495,2.7368699493245,1.4816724738860998,0.627711842085005,,
5.344625999999998,136.36136209314745,31.158271541794395,-147.9912485064771,-2.3364044468420704,6.943150505827187,-3.5748610545561084,3.1041102003827934,1.6622829108658157,0.7669147101820096,,
5.354151999999999,113.99604596132525,31.356324928652125,-153.81631204674215,-2.590425647034577,8.462780992126676,-0.15954660836711063,3.3590256503996474,1.824714734023079,1.1680179382408202,,
5.363664,90.60278117810309,30.54090583802793,-158.40480205041763,-2.1117144882260166,7.744848614988418,3.589863676783336,3.603195239824346,1.7719440265422193,1.499568312148721,,
5.373371999999996,67.32393016593164,29.369213444575603,-161.57302638357217,-2.416654407637128,5.515061639760488,6.00610405055622,3.7123219691164104,1.598124233153255,1.6997997118550923,,
5.382869999999997,45.03253968272991,28.389519733177067,-162.58841560209626,-2.7992915551648263,2.3144675315039915,7.317669301408845,3.658316405179186,1.3865053932704123,1.9545355658945804,,
5.392367999999998,23.480638473475683,27.491436571275948,-161.96853142234275,-2.7477104860373887,-0.7057220151561779,7.243577400791551,3.577061935478154,1.332943957618774,2.1264817073970996,,
5.401890999999999,2.869036937805123,26.465331916690914,-160.17925219017442,-2.331029776321291,-3.787382189221767,6.145482519756796,3.4152085992507937,1.3860144825825906,2.2275936988994034,,
5.411386,-16.812593726503565,26.522574447023686,-157.53007154797464,-1.0226453652680043,-5.959187128007835,3.7429098159712817,3.2962278541980186,1.2627731801467448,2.284354535799497,,
5.420721999999998,-35.7873394047856,27.62764724691273,-154.7224171668,0.5561830586373662,-5.709347028159949,1.125621699947235,3.181621530452417,1.177697282217213,2.2295394391126404,,
5.430234999999996,-53.476245937780305,28.621630206807676,-152.61189107861543,1.9815579680618147,-5.948275369063825,-0.0648167963782566,2.8887656080963047,1.2094055756064346,2.089611339031992,,
5.4397400000000005,-70.72802987748149,29.034621602515884,-151.42914185240926,3.266831518474637,-5.295549325418692,-1.5283355000602683,2.7117963725491596,1.3477203479047517,1.9010574925783266,,
5.449249999999999,-87.5184057198822,28.290988684875963,-150.86089488094746,3.904036754688621,-3.4116068359879748,-2.381853094447911,2.5125765232646367,1.5533009155110087,1.7256319670819211,,
5.458765,-102.60619431856747,26.314714711318473,-149.37503219293274,3.9268372073819826,-1.8970460271546061,-2.779965514713552,2.1320617759940963,1.6791056708624945,1.6816940752709584,,
5.468275999999996,-115.58731940306289,23.805916525171863,-146.73660076319825,3.1220976360348507,-0.5253359198478171,-2.606505462025334,1.733959032403231,1.6710542000161337,1.627092430758537,,
5.477782999999995,-126.26113090002461,21.478000609242695,-143.469665334578,2.4920242905330676,0.2484182954982022,-2.13024663133277,1.352352169814247,1.510427562036646,1.4749571339889949,,
5.487296000000001,-134.86372117215532,19.88858849796458,-140.08452356004736,1.8125756496438983,0.35933238567620374,-1.8740645983883917,1.0696529383867586,1.247082634480697,1.2847926246245345,,
5.496820999999997,-141.90042285453072,19.071891086726662,-137.59542068268206,0.9353443028191294,0.04158291346733251,-1.322614319868704,0.8925399228057994,0.997337938059706,0.9674992307946475,,
5.5064160000000015,-147.43099254287648,18.860724374735966,-136.77425957842172,0.5930591365050143,-0.3009796554225093,-1.7538321543097648,0.7393781834914047,0.7426597928365465,0.5241135006951575,,
5.515898999999997,-152.32555291144936,19.189829343649823,-137.63404543712474,0.10545107991298548,-0.16051281529533,-2.180382976943151,0.7244352032050416,0.5809611931028262,0.14738439149076757,,
5.525435000000002,-157.6265207359389,20.032795923703194,-139.60687885770685,-0.6399492995833641,0.13752191527016175,-1.5553691632851359,0.8615447702886809,0.5341707164788808,-0.03850959454199619,,
5.534861999999997,-163.4872750029581,21.430969945564655,-142.01367274433395,-0.9022274749088174,0.3734216073505947,-0.8886181473200879,1.0271674694602941,0.47648475523340766,-0.0660959057935679,,
5.544356999999998,-170.1648560867056,23.67583196736201,-144.33790522441447,-0.5568589921611575,1.0438076322076977,-1.6448258587450197,1.2572740619381848,0.3804600629282349,0.04794500878939392,,
5.55386,-179.16925446411753,26.3814113289849,-146.36745776953302,-0.5170778160783677,1.889728821431816,-1.3648602534558865,1.650885708951513,0.4837308509360082,0.3571026397505545,,
5.563383999999999,168.65328983662556,28.93592597490562,-147.91787637980278,-0.20432000793954175,2.772992657422534,-0.9289093384751209,2.089954000398374,0.743282721248489,0.8222190219219263,,
5.5728870000000015,154.03410112349948,31.359165152202788,-148.95069896262942,0.1777096449236091,3.0443371851009915,-0.27012905816901994,2.4085720828058252,0.9134464445784838,1.2639123433645023,,
5.582397999999998,138.35192192485843,33.427857750421055,-149.33805673411533,-0.15209268108055138,4.5754723792375955,-0.4556150211144912,2.4834362896001516,1.0136367325938418,1.5350720869424084,,
5.591903000000002,120.92510862377672,34.673296622727946,-149.28773672759223,-1.523455517585655,5.642574733092431,0.5063159118485407,2.6088770849700698,1.2687263692941142,1.9074600809315865,,
5.601416999999998,101.87102327333554,34.95103325924017,-148.47890592309773,-2.2532389795164374,4.091094465153624,1.4132534988250411,2.707865107003738,1.5758460428938343,2.3032630039843105,,
5.6111119999999985,83.71501563276897,34.24076287974303,-146.48204583871575,-3.3690991075251437,3.4082623349970333,2.3576068145019717,2.447478593626744,1.7303086560853536,2.444658527491021,,
5.620615000000001,65.82144792235589,33.00044083981963,-143.27167485983253,-5.219776148761722,1.9640124167001645,4.143076454109216,2.3007838753064553,1.919803517419244,2.622859430136566,,
5.630128999999997,47.652168508023394,31.750021507901128,-139.08534096778618,-4.126490412277362,-0.8579378434298769,3.5406404154446567,2.2431998044842696,2.1204694650137883,2.8014720165402256,,
5.639638999999995,31.371306197472855,31.058569964946777,-134.00000623272612,-3.5902798686131465,-2.889986435892538,3.2954456798039113,1.929732061750812,2.0152276426362747,2.7294171842041357,,
5.649144999999997,16.230906913437114,31.55285522357473,-128.62536034884963,-2.1540584905489886,-5.350027343199399,3.4991793328523286,1.7867159044371361,1.883559881929174,2.646726838624195,,
5.658667000000001,-0.5904289219585418,33.24692434487946,-124.51456959835667,0.3570515304174311,-6.193311373146285,2.723976376430834,1.9674294684397757,2.086128673060893,2.623640408276296,,
5.667977999999998,-19.59423059656846,34.99677099964925,-123.09119494723582,2.4862491696846156,-6.009949934467574,2.0290580782644,2.0390909100015584,2.4282361692084633,2.3901968331388828,,
5.6775009999999995,-40.48491720357201,35.71605673505735,-125.40364785725797,4.74805086114243,-5.234435906584577,0.9354826551667048,2.0365345572625513,2.738277242235144,1.9612395350637757,,
5.687010999999998,-62.35880000662942,33.780144395138784,-129.70867229090422,5.61832333631013,-3.034308401825042,-0.7094893899468856,1.888104465384435,3.0829996379752136,1.641888276434378,,
5.696531,-82.12913732970398,28.94197874116199,-132.31890996397775,5.117408460328195,-1.2146076973117537,-1.7225486244443255,1.494225260888624,3.1788316970148807,1.542207199654587,,
5.706037000000002,-98.71932374618554,23.177576976003937,-132.26695163739817,4.0587418299035125,-0.5942435611580176,-2.654881731864602,1.1608601888440122,2.979568006338159,1.4700445962922166,,
5.715618999999997,-113.56563694431838,18.24292199132625,-131.08710101423574,2.499611738698284,-0.3313487723381207,-3.1826894203375207,1.1154636208777622,2.7311326172310832,1.2862707887175402,,
5.72513,-127.54790610746089,15.189903851420981,-129.6977356287109,0.8395475638990074,-0.38325789266670873,-3.000096526820164,1.274367216770214,2.4367648875161207,1.0820215058826372,,
5.734640999999996,-140.59068813202842,14.136949331683283,-128.9809052859569,-0.41454931645845366,-0.840839772167185,-2.9421666528690036,1.439019802419174,2.0869167960733845,0.803891348220585,,
5.744144999999996,-152.76322286224604,14.32248022099958,-129.64646097564926,-1.2727506173803043,-0.8609153040633349,-2.9184855916220975,1.5250837914287634,1.8039451228907089,0.46622158389796403,,
5.7536580000000015,-164.35252614140558,15.246298441104315,-131.3280569900391,-1.6130419014183053,-0.32097800621636674,-2.9096889824284053,1.5965608621392346,1.5862194095504518,0.2564649715270502,,
5.77261,172.53708293617697,18.174041975821826,-134.66960562936265,-0.9383374364091891,1.1941137466051202,-1.6792679492552554,1.7590066051326045,1.372652697608104,0.4048548225938155,,
5.782128,161.49357518794173,20.029614304282944,-135.24000544513555,-0.38517570434645476,2.142731099913978,-1.3310082407647517,1.7380978019358702,1.216595440131021,0.6095836497268373,,
5.791627999999996,150.58779761708,22.421989007946532,-134.96396272205834,-0.25417862039005923,2.939523476109685,-0.9650553274421656,1.778869918699737,1.098255129151102,0.8454993182338911,,
5.810640999999997,128.2219543167387,27.954893892964243,-133.04570940058616,-0.8650970214121544,3.600834854863948,-0.33069600626507656,1.7846676592549455,1.0764270646937335,1.2138569622345785,,
5.820155999999997,115.40395431036569,30.66843121096252,-132.856246060238,-1.7762331898371277,3.5762423014217575,0.0729483504868057,1.9209155486509748,1.2692637792306578,1.294040561897747,,
5.829667000000001,100.36967189820278,32.807215553882344,-134.4609636583323,-2.2663802440747456,2.8092309767518455,0.31911053729837363,2.0747459283866396,1.5576460025159562,1.2634090621894616,,
5.839360999999997,84.05776511681553,33.51491386457602,-137.88094342923813,-2.4114897480324453,2.038976790714991,0.996093877605217,2.0684021471642007,1.7906722423477905,1.1050071082120618,,
5.8488709999999955,66.83314219640357,32.42746461969602,-142.17298503450704,-2.742728547882978,1.9857526886450583,2.2903177225643536,2.0744461302564945,2.025126408110546,0.9970413450162663,,
5.858370000000001,49.76878221890341,29.95676171550988,-145.9245228658556,-1.5705783689578996,1.779677983752981,3.192208581009962,2.074478479511779,2.114312389894132,1.0011823573955938,,
5.867893000000002,34.582982133864704,26.74690354589114,-148.45968137284896,0.14736790104136488,1.6050119309218402,3.510950990244904,1.9025149507605754,1.9864986055755685,0.9393071839159705,,
5.877398999999997,21.52958784890636,23.03336154034395,-149.14349795766714,1.1883732399586973,1.0160648813076087,4.113368268566519,1.6448599405666942,1.8616421787994075,0.9640806207390437,,
5.88691,11.244788985670926,19.559356442924344,-145.1210049369342,1.8263320115965127,-0.06615944713422672,3.131617422110696,1.2362083011623946,1.6252565937429584,1.5513033359567812,,
5.896422999999999,2.82111057422149,18.816593424806165,-137.75414196944232,2.4421231798666754,-0.578470663807465,2.5278236586740923,1.1546196171663228,1.110601242853175,2.026801921154498,,
5.905746999999998,-4.53635944238975,21.941844567985992,-131.29218809188157,2.806679387236266,0.5971860627900639,0.6104040997171462,1.414076837882346,0.5506466132134356,1.7481589450923365,,
5.915447999999998,-10.427683360442366,25.360143459487624,-127.2809706557117,2.649065545943182,0.1601625123793913,0.8185806949323436,1.2122829866221152,0.40932623543985597,1.1688617614460988,,
5.9249499999999955,-17.494894586497676,27.816859569034815,-126.45020632967487,2.0863766121223914,-1.4002661860658188,0.6974046691097111,1.1481671237494728,0.7246034075336253,0.6641976670161638,,
5.934283000000001,-27.09808906585759,29.583362037139043,-129.01572700392424,1.2626544104274344,-2.1647528669524494,0.24710143893793493,1.3052297346367994,1.1246333260646724,0.29038224761031045,,
5.943795999999999,-37.79040908852233,29.40916668065671,-133.58653561829223,0.8307878610253218,-2.82604468153428,-0.1254751042943446,1.2034760274266807,1.4223662231651197,0.14117633154423487,,
5.953305999999998,-48.57393126952534,26.917824886664953,-137.08082144452,0.6678644942565435,-4.0132481539614,-0.9685845468763635,1.0040568700900332,1.6915181402545802,0.3214118073109702,,
5.962817999999999,-60.05221897681441,23.2619200731088,-138.6232541809863,0.5428007230445008,-4.302934958102205,-1.659583691850485,1.0537238094871642,1.9376561003283894,0.6668681426950209,,
5.972324999999998,-71.34601469171258,19.41066027065429,-138.04625023290663,0.8330462966420192,-3.545016522055502,-1.6872727021430525,1.0628592538042987,1.9749504633001504,0.9379903868084732,,
5.981794999999998,-81.60913503327235,15.953989404567272,-135.43625889931397,2.082794271256279,-3.1990938117384546,-1.7518161129035448,0.9531745025900269,1.8452801303687958,1.145250343089449,,
5.991309000000001,-91.8016839379355,13.49347164888008,-132.23730199731014,2.653034003946821,-1.9270149398104115,-1.8832031616376967,1.0129206646741764,1.7648374876491746,1.1573885845686311,,
6.000864,-101.86225337839471,12.3817091670153,-129.74284566528846,2.2271069097274934,-0.15347339136193247,-1.4092120028569086,1.1202622481486582,1.6279118724233241,0.9490997693177778,,
6.010373000000001,-111.12789514733366,12.878677171850816,-128.01880547786428,1.7600845406237742,0.7216174957210651,-1.2622836728357938,1.2136649482423167,1.347010327342848,0.7500646325503983,,
6.019898999999995,-120.36238601119277,14.960090405139313,-127.55096186763717,0.6155613134640667,0.4686106767850797,-1.4268783250594224,1.428263198311466,1.1635050346832232,0.5382597037725785,,
6.048411999999999,-152.74392868978114,24.29559560008275,-137.14822097514235,-2.39071713350122,1.0771806416391683,-0.12580047213841816,2.004787392190879,1.1217449630080771,0.039013533563397866,,
6.057916999999996,-165.9967458316913,26.8147629003455,-141.767355429901,-2.0642506679054464,1.3780226707740586,-0.1744489856001398,2.1445697042511567,1.173682635089664,0.22332549690357262,,
6.067433999999999,179.43054945878453,27.505364397454585,-145.92005914331395,-1.4424693656092946,1.6120928728421233,-0.056944249976237656,2.1757160204998955,1.4195416275656534,0.5038637395337859,,
6.077131999999999,164.95465632727493,26.687716237256737,-148.5129964035196,-0.20804200242676538,2.2412328627028515,0.3037868907602202,2.0799081050557127,1.5332269482263603,0.803083358853267,,
6.086447,151.16061765701943,25.993235986426505,-149.2695908617342,0.316093332346993,3.6307398675930007,-0.4047128016329131,2.0470229786563983,1.3969059843495617,1.0743806610944675,,
6.095967999999999,137.85322012686098,25.512740228820636,-148.04354510440257,0.03685500980558976,3.6516369407990634,0.48053714056951136,1.9998313067372226,1.3301459080106721,1.4020359599459937,,
6.1054809999999975,124.86700187163986,25.325944943038202,-144.8048494515459,-0.4174925538436549,4.040638854403583,0.7633167213698859,1.936939818422485,1.3303674141397117,1.7619957359372165,,
6.114990999999996,112.06270681558492,25.739229367976236,-140.26448495086433,-1.2099716243820915,3.90481653618946,1.0101672958166044,1.8879013383092378,1.342751461823928,2.010703771094168,,
6.124485999999997,98.99836675734898,26.599895068932405,-135.40750412216937,-2.813104909926812,3.1235269299762893,0.9997909519834571,1.857235974803439,1.4499915444961151,2.122395549284526,,
6.134185000000002,85.52490414885783,27.28483137848213,-130.62387095500316,-2.8603791992140364,0.7859434498861295,0.7795589128853244,1.742342074946932,1.6668824279061363,2.1763348012839323,,
6.143507,72.2752274707732,27.29559013455306,-126.60601934268952,-2.202950508908397,-1.312951359948164,-0.2228449835382175,1.4743707059836564,1.8423149533116392,2.0178466295562343,,
6.1530289999999965,60.0095959407298,26.369760715297783,-123.29440823853399,-2.501688043529277,-2.5738294288620063,0.013486208670897275,1.1048440194676856,1.903255774554559,1.7695782205490054,,
6.162531000000001,47.34409389145806,25.073338532334567,-119.98813338404645,-1.5913689727894345,-3.4282996005356186,0.35022198639750973,0.9791919366129146,2.0821121079779585,1.7604305433485916,,
6.181725,18.706676097592485,21.88337545120348,-115.20508249137308,0.22305663908530293,-2.9774318081395097,2.4426220302735167,0.8876623121541176,2.6114698774994616,1.5264220050290875,,
6.191248000000002,2.1759641424855447,20.53935262630924,-114.05992618737994,1.6904726099851834,-3.049018182066593,3.0564009810768598,1.0435207760632084,2.9172142074301677,1.4256087664881456,,
6.200753999999996,-15.538251368799745,19.834840758760468,-113.71389890609893,3.2440655718869396,-2.502369684853185,2.6175630148111853,1.220276602767979,3.1010622402952777,1.292917836172146,,
6.2100949999999955,-33.76061160522226,18.985174817966094,-113.97762203162208,4.85873580535043,-2.4666470919373635,1.9807170686941928,1.2370061952967832,3.215901887117738,1.1602549100885604,,
6.219602000000002,-52.46510868247634,18.13334288224077,-114.64706038298766,5.386108376200402,-2.2511758823008483,0.27910822434780397,1.307661264334201,3.30504250247249,1.0591565935493357,,
6.229106999999999,-70.85741747815929,17.65476620059078,-115.705515100721,4.7004921616220035,-1.5173464090160678,-1.4426232391012177,1.4047187172634656,3.2116233351771366,0.9212864072814607,,
6.238608999999997,-88.30999779610953,17.683470226291774,-116.65153504703947,3.2517241009143056,-1.0285722435556566,-2.625875767547249,1.4738689211226201,2.9851345433101617,0.8725517157456443,,
6.248207999999998,-104.81313549982912,18.7157008507239,-117.7353407886583,1.5693847759421926,-0.9316000342814698,-3.293132084459458,1.6168699038340504,2.6977643619920033,0.8163865748666194,,
6.2577209999999965,-120.86484756302217,20.764193887276516,-119.9856263262245,0.16098361195497476,-0.7368334530816352,-3.628310368413223,1.8165829616410853,2.451855942232844,0.6376349492959242,,
6.267223000000001,-137.18292571111698,23.266210388030547,-123.8178797543554,-0.7352477595029085,-0.15866474408029285,-3.9546887159680884,2.022341622247304,2.307323057361698,0.4620435434919091,,
6.2767319999999955,-154.66573767108855,25.32453194685344,-129.1166251964438,-1.49859399640644,0.7728269513900798,-4.0786585574911935,2.223620124100882,2.32080933258328,0.38620896208141325,,
6.2862499999999955,-173.81095573621144,25.838544399393946,-135.2613431274505,-2.2867373953680503,1.8005919474573242,-3.2033607464300298,2.395123614606838,2.49068952304687,0.4340636636285993,,
6.295668999999997,166.15610842068892,24.351257731574197,-140.87069005331074,-2.1477796541876955,2.7024103559943615,-1.7705485675126273,2.5026234102985874,2.6441283719704383,0.5874158470393276,,
6.3051829999999995,146.70079903132722,22.06189884921207,-144.69933942326062,-1.2426773494924803,3.7169218143745195,-0.45259884753593654,2.57471319779524,2.525239970152956,0.7747471097285303,,
6.3147069999999985,128.22166946226753,20.61729120007984,-146.64096908270943,-0.9567270021176403,4.375718795761647,0.47136510112236796,2.6830460271793126,2.179505793008519,0.960537325670167,,
6.324205999999997,110.82810180513643,19.905793440921,-145.8566360139856,-2.409937947114952,5.832686076959944,1.1403610144083165,2.6379618845759687,1.9327462773216686,1.3618892170102637,,
6.333894000000001,94.11209727755883,20.409306108777503,-141.8171656641753,-2.2921798100176765,5.293099445230128,3.1318413409835837,2.5976946635392877,1.7744239403374826,1.9568320520554114,,
6.343412999999998,76.73684555610673,22.607423135762748,-138.24856225330782,-2.1985235455453775,3.800378745967848,4.398161109711789,2.763446844545014,1.7456545544807152,1.984995981630566,,
6.362440999999997,40.48355002492423,27.901112430986892,-133.497351626915,-3.1066024805186614,-1.43637202719524,4.151990935547224,2.643696710972405,1.898228381544444,2.131511013568925,,
6.371946000000001,22.65206933649105,29.805543802404387,-130.857499534231,-1.5766479748247153,-3.2417247106045717,2.9677976611711308,2.3819137581645258,2.065160027242851,2.24826445404445,,
6.381451999999996,5.210638716337445,30.39504640237291,-128.36284522430844,-0.9115800683413501,-5.193728135117996,2.2879205831249942,2.018067094077898,2.2547046951963603,2.248137880303692,,
6.3907899999999955,-12.581281189450294,31.789253122282727,-125.78000499237078,0.9283357879089726,-6.831119596625899,1.7255003729782283,2.0616427612744217,2.2691053162033503,2.35394949471559,,
6.400281,-31.85578163919309,33.46168564364626,-123.81544179954422,3.411593567095964,-6.003209133479818,0.5835183703491047,2.1288193660175216,2.481636652540598,2.4716619860952944,,
6.409810999999998,-51.94520750839172,33.808554066986325,-122.1728224079562,5.825363516470755,-5.632822225353453,-0.2711876046793758,1.8824608183604423,2.7731584229408774,2.554752680785953,,
6.419317999999997,-72.87544151174468,33.43729546637905,-121.91806956311389,7.128664078249159,-3.956704733252617,-2.10715108324811,1.789472294492065,2.997299556046299,2.3712378432038275,,
6.428820999999999,-93.84053066791327,32.15803247627003,-122.90629282064558,6.467603971811812,-0.4367399160664925,-3.232104433609351,1.6770325103012746,3.1137627036717737,2.077508418687196,,
6.438336999999997,-113.23961484813474,30.279921480067383,-122.36745390883748,5.426898326152699,1.5745831800606125,-3.890758881490677,1.4778707922606662,2.998463523522234,2.1202109008331065,,
6.447936999999996,-131.13446977284823,28.90235857306245,-121.01865872020385,2.9556179139302663,1.6170422024489133,-4.095227765526082,1.4042994863148344,2.795437381200864,2.037448129607006,,
6.457433999999999,-148.36767903915532,28.27939805284581,-120.90713257597949,0.9322130159718952,1.4630911582037476,-4.382765065846794,1.4523507854464326,2.6613291208379337,1.6731610663815368,,
6.466934000000002,-166.1254604486268,29.0750398817432,-122.40589492053412,-0.9103389517083109,1.0039285834117915,-4.214884646737366,1.770839273810934,2.571005126469367,1.4076729453707695,,
6.476458000000001,175.37430769776245,30.81191411592112,-126.00840204315861,-2.3573882273729687,1.2100282710308021,-4.4728411342114915,2.0878448777014817,2.4584491626848695,1.132106802842016,,
6.485970999999999,155.0709846475367,31.706186135464094,-131.15446436444958,-4.00858765310043,3.601198029772029,-4.300210847258373,2.3027179997794476,2.602699986446356,1.0867039062323938,,
6.495385999999996,131.89199454095694,31.53296667894556,-136.06391655963972,-5.157131676992624,6.028709508883598,-1.5028450712692123,2.6971630149406045,2.88105945238343,1.4596451405532176,,
6.504913999999999,108.42657962835291,31.142566487844523,-139.26026666133163,-5.2946462757309165,7.392580220947836,2.2842776783827885,2.9113854259657264,2.756971043404358,1.8099145477727188,,
6.514609,86.27867116548373,31.428561652863962,-139.92417612214496,-4.577260069734335,6.0858611538743475,6.539573723190733,2.9215945876820424,2.412917905355334,2.1710270257042943,,
6.524119999999996,65.65898577379996,32.26265906055741,-137.69140079489503,-2.7304883497430836,2.493212496216676,7.6755355975434645,2.749908864382698,2.186924036620009,2.6218103555496253,,
6.533620999999997,47.17752632873043,30.47130734457186,-131.7125831964931,-2.2220620305086363,-0.5656074234761124,7.263348187849498,1.9739485593312691,2.500957605015186,3.115627964360057,,
6.543129999999998,30.01422483346453,29.703402919422725,-122.75392194746223,-3.0160981462019216,-4.012369624612573,5.412823072654905,1.6830042291762612,2.467455665761674,3.5063540468317864,,
6.552469000000002,16.906557562188603,33.398946258363125,-112.44809182502152,-1.687749023431159,-5.422919172599503,2.1593482461001208,1.6949550163195377,1.6465618279345593,3.4294970832510896,,
6.561969999999995,6.668673303090915,39.32317342372646,-104.05330978585182,1.1793109316094221,-5.836108706066232,2.053725742887882,1.6446736416524772,1.2009455951352228,2.892087167558276,,
6.571475999999997,-8.69485123267696,44.15565020134409,-101.56966546919546,3.577664158180012,-5.422564011417506,0.8725693533352509,1.4483120637900397,2.0275110076572003,2.543999837562401,,
6.580990999999997,-31.017515995100062,46.66063172938067,-106.78167613314008,4.076743081270459,-3.5129609505838064,-0.3994517155989351,1.2484253256364048,2.915772741000368,2.1597155143199305,,
6.590506999999995,-54.88729528637386,43.6421908799538,-115.4590222345828,5.811984597163438,-2.546847483018168,-0.5386864453449222,0.664979076085107,3.3485650161619556,1.7164433575506655,,
6.600017999999999,-75.61364908661558,35.27789303167552,-119.80749609917608,6.014211499044024,-1.0957947982581524,-1.7957661111841303,0.03900306190523756,3.6054317877878224,1.8985596831525455,,
6.609347999999997,-91.91201525542408,25.695995021277668,-117.71421519737322,3.904659981648686,-0.21059173134494377,-1.7946037966421846,-0.3164066394092879,3.3867882352945387,2.073344371222336,,
6.618865999999997,-104.15642686111316,18.09060902825905,-112.51582850139302,4.339983105662542,0.08593177014316972,-2.7185017662330186,-0.4081500223978293,2.7077345631496095,1.9504225219567275,,
6.637960999999997,-128.55669066410204,12.718531062849477,-102.92160238008655,1.944418594887431,-0.8097710025467943,-2.3931994112396184,0.4358541506255607,2.3772057406200933,1.3187733854006447,,
6.647644,-139.50313946522897,14.70406056411555,-103.52035164101424,1.2239807677315409,-1.0687315582004489,-2.9325062785876983,0.8889628272540102,1.9748522970317706,0.5864059442903127,,
6.657147999999999,-149.93234154582245,17.989175606314145,-107.30857346002463,-0.02583819297377717,-1.089288660476179,-3.2125255056825215,1.1742986639329462,1.750765270141603,-0.04640224474257817,,
6.666657000000001,-160.14739191703515,20.674585371432407,-113.05712933646551,-0.9682774701430819,-0.8781341500371582,-2.2252944909317116,1.1691630550611412,1.6260404367964332,-0.4709670287973231,,
6.676173999999996,-169.2017537667337,22.45122067834869,-119.44978149174845,-1.201004516554899,-0.0010797749186574285,-1.8344791489482577,1.064070411515768,1.354688994720648,-0.6112552663885529,,
6.695121999999998,171.88271205689665,26.099351895809946,-128.44377220241097,-0.9291894240157385,2.1552199409489967,-1.563320204594674,1.3797300182099217,1.2450979675009275,0.0704608881877451,,
6.7046259999999975,160.31529306515785,27.88725142720738,-130.29702039982953,-0.7923086448816541,3.1230319255876497,-0.6997679015847266,1.5800497335410966,1.3734053607635,0.6096848132965158,,
6.714137000000001,146.90403799911468,29.87029150568206,-130.73738464643154,-1.2990762126775137,5.143060950827378,-0.6158161190992092,1.824346397478214,1.534228762883578,1.1590769993607268,,
6.723646000000002,131.2309746479576,31.870454894477334,-130.06404439955256,-2.1313550994784722,5.742529931826605,0.28785265995760523,2.046974146904527,1.7954247914470232,1.7191698375604498,,
6.7331549999999964,114.10649898837092,33.42328248480704,-128.77576423645834,-3.660143166622242,5.645075013282205,0.9454466121276524,2.0725880477646905,2.0343512181555883,2.1099702447774025,,
6.742663,95.8149014878086,33.993067589197004,-127.26311636730867,-4.999230439002317,4.191547115811021,2.1255273443048606,1.970136413895342,2.3283300006775143,2.368973496474782,,
6.752348999999995,76.58327001974624,33.25383744220132,-125.84755765233469,-5.209501782892195,1.6977869789174884,2.776080516074544,1.800110095278701,2.6594005810885624,2.4757940829056895,,
6.761862000000001,58.3801584169099,31.294200888404166,-123.70323376371799,-4.784294882084364,-0.5426919201672133,3.0134963522944678,1.4490914156996002,2.7501789832459544,2.454526426342156,,
6.780884,27.446220693185715,27.65421339192737,-115.39244514230435,-1.4093694054354544,-3.6644548907046794,2.9744386839466417,0.980614869284118,2.45005939168108,2.419626199961509,,
6.790385000000001,12.706382245117958,27.281090768475348,-110.65704123270149,0.5746609795981392,-3.7962243531489834,2.9941251912612232,0.9570493773466238,2.4421077720530664,2.305361346068768,,
6.799911000000002,-3.0686148042118115,27.962282044139755,-107.31587396904823,2.4847528531734877,-3.71959437257541,3.0276687137631724,1.0395957527670694,2.6046248430401517,2.1301801215932468,,
6.8094329999999985,-20.56307738195972,29.425055161370857,-106.09860940999884,4.203691609941822,-3.2956025031492038,2.534505409491378,1.162175665842901,2.860707603318667,1.9242854114322285,,
6.818753000000001,-39.438134499924566,30.42063770274852,-106.89272250514823,5.784428696071909,-3.0068073358226317,1.560880628886029,1.1194119938437277,3.0843838877388032,1.7275573783915685,,
6.828265000000002,-59.02710894454082,30.064150905159423,-108.52122525925878,6.584587435897564,-2.658246514823942,-0.3429170909388737,0.9629910091807615,3.2483673361101886,1.6519384577641034,,
6.837769999999999,-78.3326966151803,28.551120160856822,-109.76520837171881,6.16151376619819,-2.088210742703009,-2.4328593458868655,0.821683878279354,3.2819416291506247,1.6449670857450756,,
6.847369999999998,-96.37775976283703,26.48591244723418,-110.03266506825302,4.809664162493148,-1.3950083737444154,-3.9212377234905964,0.7049414128816744,3.1524519474009716,1.6161721186232079,,
6.875895999999997,-139.49696295617505,22.10743665072538,-104.72426963827462,0.8144280925058818,0.19711822745655433,-3.3769036187592856,0.49148696608895287,2.25379641809313,1.4579282456362508,,
6.894909999999996,-159.17526589263062,22.859537270145047,-100.76224871965829,-0.07697185652568961,0.003455765499874935,-1.8214241376101925,0.4870245107321864,1.6157872598816077,1.0187292778503858,,
6.904427999999996,-167.20098051211116,24.44808597937105,-100.3344138444587,-0.23219722536400556,-0.38100561157285473,-1.4241468637890764,0.5816596116321087,1.3887361514655474,0.7301293899161118,,
