timestamp,Roll,Pitch,Yaw,Acc X,Acc Y,Acc Z,Gyro X,Gyro Y,Gyro Z,Acc Magnitude,Gyro Magnitude
0.0,10.356083061719277,4.543871621968737,-140.6873425721005,0.6113744783131349,-0.050205609829674924,0.11319102308427623,0.028343629026919198,0.12043915407716436,-0.2892612628165736,,
0.009515000000000384,10.102738147127802,4.903038777173136,-142.51760976147622,0.41924730227706924,-0.11664553298615743,0.3084919460843809,0.07355653493206475,-0.020718281589550584,-0.3697905027780146,,
0.019036999999997306,10.09170479766898,6.44579253484994,-144.19592875487302,0.16021379049793977,-0.030312598398328464,-0.37827092594836,0.17568668156867004,-0.24186110065029295,-0.34346349790881286,,
0.02854899999999816,10.717597277355312,8.490572046596048,-145.43668788578677,-0.30340991628647035,-0.194142118692349,0.5372916496599542,0.12429200781357054,-0.40120553458029257,-0.2726615977916649,,
0.03806200000000359,10.943710017852137,10.71272150263517,-146.10310574715587,-0.8767610393385487,-0.28207565199207285,0.9940126168604587,0.20365769338715983,-0.38768429351706385,-0.1491869656983191,,
0.047581000000000984,10.707121548142698,12.989386599161477,-146.20127112915935,-1.0217353600060286,-0.26966504285108206,0.8039289997236241,0.28294906768563427,-0.34725435422917106,-0.018305737042138944,,
0.05708200000000119,9.826377143599638,14.542421046598985,-146.07903627679266,-0.6422770170488551,-0.18471585967358292,1.2284184079654832,0.30611501498317867,-0.15710147727600532,0.0580721648683535,,
0.06658300000000139,8.081389857513917,14.786983355482938,-146.15298936178394,-0.06540516862190886,0.3440488661991779,0.27714167517984006,0.2983867040663405,0.1536221594408301,0.0655582765013729,,
0.0761060000000029,6.899291707327379,14.534739125119513,-146.57951946002242,0.29941469363139195,0.5427155300402642,0.4182133060376624,0.15306027587980334,0.1748364425423666,-0.033354087431620195,,
0.08544799999999952,6.3428740717776115,15.17838066421561,-147.51369637404807,1.5994428238552998,0.9753686748437548,-0.9287740764808934,0.15096634364387146,-0.04335363506662061,-0.16628736593760177,,
0.09741100000000102,6.3415820626458475,16.187132729289488,-149.35443055488471,1.9458161224147794,1.6381065158945083,-1.4273976395444214,0.09677729432191694,-0.16538329875737923,-0.3763637341575362,,
0.10446999999999917,8.296837103841087,17.403626939793497,-152.1296702897474,1.407025435627983,1.5718623257941138,-1.3849595331500408,-0.2164646261029609,-0.3887499267501344,-0.6770235580221409,,
0.1141539999999992,12.721413252696356,19.50006898657825,-155.4535596435485,0.9874993007007068,1.3074063821762656,0.05148118434051518,-0.5761874642550485,-0.740574648706794,-0.9547184586699765,,
0.12349400000000088,18.372611919247177,21.26414099710603,-159.15732269454944,0.3062540608706199,0.7639409667548401,-0.6806217592628198,-0.848699961515013,-0.7279599338914997,-1.1451932961060682,,
0.1329899999999995,25.076323410919844,22.552273444357862,-162.2821379449629,-1.3377639933852215,1.1444870207762603,-1.1432120346078551,-1.0954706322089762,-0.647926524213608,-1.1369183807770562,,
0.1449440000000024,34.6692477835355,23.828860549521767,-163.0823433492321,-2.2557916871738506,1.1785693001848045,-0.8712267191200903,-1.6131768167856675,-0.7637267594207356,-0.9284712354640814,,
0.15201300000000373,45.82115682514529,23.534174309931334,-161.433817662722,-2.393056366844591,1.3048013694757774,-0.4544162708768977,-1.967776310861759,-0.5637115228129452,-0.5807393881444303,,
0.16399799999999942,56.12827002877057,20.157794267004803,-158.75436305188688,-1.8191122974909082,0.5028083704892234,-1.2718509252680947,-2.033034435668651,-0.017374200265896055,-0.24645259758414761,,
0.17105899999999963,64.70664035205434,14.328072580207722,-155.62744085141114,-1.131423121351386,-0.028511017435721132,-0.5670888233892089,-1.967273338315319,0.43636849108913456,0.10176149601803397,,
0.18325200000000308,69.01634920526001,7.432205278858344,-152.5501978437191,-0.39760251616945974,-0.6561062244140468,0.005456972405998096,-1.3697344745587483,0.8677842928022351,0.43929479391077453,,
0.19031999999999982,68.02255297950317,1.2171885475336948,-149.17524148961112,-0.8431039702331826,-1.11663117372968,0.5854598385583271,-0.43761159484306367,1.1798936538323426,0.6778240827439249,,
0.20226999999999862,61.96667902607766,-2.3943047432253346,-144.6024806174521,-2.080654617149456,-0.45208276854783985,3.3906808204774066,0.615138731253394,1.264255339402903,0.8901163919691079,,
0.20932100000000275,48.608142852627104,-1.8318006420288209,-140.02106084917048,-2.808874934381146,-0.6292168958116793,6.612078588279593,2.1766274342638616,1.5438069563441654,0.8030827650633455,,
0.22128800000000126,30.06727599149191,2.5210078295771043,-138.54113790956018,-1.8392480205926771,-2.0737153526022083,6.306579878497024,3.368671838553838,1.7686179909344109,0.3056797856305909,,
0.22835500000000053,10.935567534982088,8.467137698291998,-142.02733421090954,-0.002363857142538632,-3.545241900810154,6.816723009956596,3.6775670818826547,1.5345658114874654,-0.3320443838761579,,
0.2403150000000025,-10.097053539767423,12.499121240832848,-150.0428516731581,2.21383136167651,-5.016770916099315,4.21317281866946,3.870244571806371,1.659202854806822,-0.8248541771998088,,
0.24963799999999736,-32.123201426080094,11.4068148293193,-158.8236987437709,2.425197185418222,-3.71530017483643,0.761412648707512,3.787988441753059,2.0654823939596376,-0.8237306231941182,,
0.2591549999999998,-51.69889888663237,7.019764513590988,-163.99991336020958,1.1733380307980878,-3.6001140940106926,-0.19416534153520798,3.3804997428696737,2.066247058962226,-0.39375468163131927,,
0.26865899999999954,-69.71088981093403,3.7764228893520455,-165.0942481362047,-0.017307819911226374,-3.353246229106381,-1.7380299677467934,3.2801962914300375,1.5839445949334914,0.1301081344845351,,
0.27824799999999783,-87.63683202625445,4.191693488407802,-163.59852024312994,-0.8020251113470022,-2.657092953233871,-2.9112439651441027,3.4615215109641944,0.8900253905696869,0.556636435055288,,
0.2877799999999979,-105.45940960112794,8.823633209887007,-162.15499983518595,-0.633161009723527,-2.6308451351885007,-4.51404447086029,3.65182514754441,0.16442116293289177,0.7018872364342256,,
0.2972859999999997,-124.46066703634828,15.668814940675242,-163.61546625854513,0.8279097331954238,-1.7780036933651353,-7.122840147808728,3.945796412254828,-0.20761125585869578,0.527673620953174,,
0.3067670000000007,-146.71142779846986,21.2417212575738,-168.67423414429032,2.478265112746473,1.0753057118151155,-8.96855027493172,4.3573556909936,-0.06544902783852935,0.4174923554221328,,
0.31627399999999994,-170.9873141737401,22.847903248216706,-175.23750274341853,3.1362257498985397,4.996544687879615,-9.074829111529462,4.492983033107283,0.3057728173707123,0.5309763436046717,,
0.3258069999999975,165.5907616458912,20.177896465961908,-179.52661499586665,2.456451259772445,8.358204468806235,-6.579703776698682,4.324618604431634,0.7133835924011156,0.8714497259671516,,
0.33523999999999887,143.8551645159964,15.830417036120636,-179.17056874329134,1.3853344550793827,9.947227060177424,-3.316158828477623,4.124419789384055,0.8950684530495233,1.4118664826776197,,
0.3447529999999972,123.0416571062507,13.243792760720744,-175.0531183408934,0.27892407425714283,10.057181487962971,0.0007635428059725407,4.002233820615728,0.704659417227842,1.8540826882124746,,
0.3542580000000015,102.44578515942189,14.017268347682162,-169.7337155531342,-1.0655381864351745,8.923959086350822,2.813829329477054,3.9939303880327572,0.371029419234057,2.0150237926474985,,
0.36395999999999873,81.6909799715911,17.31101825370171,-165.68214122260255,-2.51253599938652,6.782415291138031,4.894774288316133,4.050117932012071,0.2107311373475171,1.9118135903675808,,
0.3734680000000026,60.27046905113103,20.856578234802736,-164.3909218766014,-3.855892721541812,3.6360264345013023,6.2267351576791485,4.096385914309054,0.36940984005665894,1.6445548665616636,,
0.382989000000002,38.131109755598466,22.377589603859114,-165.2125456568641,-5.185199023521837,-0.010176777566557365,6.713686542119574,4.05180759123245,0.7948026231984714,1.4578355121249305,,
0.39249699999999876,16.073729953748156,21.4835114970612,-165.80625134393017,-5.543188567921846,-3.8293269873384372,6.180807058800992,3.9163850343136613,1.204172942296191,1.521989239618679,,
0.3994959999999992,-5.484773823487906,18.999387741324373,-164.9963690704932,-3.9447895432985707,-6.902517553880756,4.989703944285913,3.7884475024414455,1.5064399120490586,1.6479407768237662,,
0.4113480000000038,-26.767059558120764,15.98598836641046,-163.1356096066788,-1.2233816373870785,-7.893954637569022,3.5409530135853657,3.73626266264194,1.6996086068697291,1.6480491009224567,,
0.42084799999999944,-48.062288048982644,13.778266013658676,-161.55760992119934,1.7573451374852658,-7.729571593862476,2.079062705592612,3.7846560393206894,1.6746745163063388,1.4106313972458602,,
0.4303370000000015,-67.43895498419062,12.063571829272332,-160.75107336004587,3.7964890586671274,-5.279950918461889,-0.18257750428711564,3.4586145677951325,1.5492170898857212,1.0341288551455488,,
0.4398559999999989,-83.45314211737495,10.24060468682619,-159.75311519834673,3.491829296217622,-1.7654009974242544,-1.5690845657077288,2.8286490945193346,1.4074549690556106,0.8276869594024547,,
0.4493140000000011,-96.36138960940937,8.916444558059602,-159.01276687341183,1.5682969806776652,-0.08475649017193412,-1.164706546651968,2.283301827110927,1.1451926655347693,0.5879870397592795,,
0.4564409999999981,-105.97751228447707,8.572877886494089,-159.8066849124663,0.3998031925913846,0.1785952817480101,-1.1481003618402694,1.7487742314294117,0.7324062042695522,0.14496626630835283,,
0.46837899999999877,-113.56703960971028,9.502498322713448,-161.56057056322012,-0.6194490169699017,0.23506102903810228,-1.3505732096592418,1.4695443242454493,0.31864458607935225,-0.10108704293844249,,
0.47545500000000374,-119.70414021751672,11.890183342859627,-163.49036026055637,-1.7803970568485068,0.5583882417129926,-1.0990062352279022,1.28690387241494,-0.09643008264576244,-0.14741918078771044,,
0.4874069999999975,-124.09847318605044,15.11871015407698,-165.69555062922984,-1.9155423559644993,0.5096160941210399,-1.628002927587608,0.9878217210436021,-0.399728044137191,-0.22586747294331258,,
0.4945560000000029,-127.7922673929621,18.433848378392184,-167.7140713713634,-0.8866686763932062,0.8160420083647922,-2.064611652752803,0.8326229492534646,-0.48759040171851054,-0.181265934947312,,
0.504058999999998,-131.92585761916288,21.635536488106858,-168.35104949173535,0.2279392520293979,0.9677964287622959,-1.8635791523060175,0.8841302059679418,-0.4710986362487693,0.16448009398891122,,
0.5157510000000016,-136.34160486967752,24.157741647591074,-167.63708475065948,1.2576819538603472,0.823797794402148,-1.8594519142771733,0.892302321438607,-0.33083519681612195,0.49449168418351663,,
0.5228329999999985,-141.31296773399936,25.320732958682186,-166.37476598765292,2.3836659355128496,0.9933531263032261,-2.125605062473657,0.9242513409806047,-0.031167916899820985,0.6761680621410122,,
0.5323419999999999,-147.89416002851857,25.649999734438346,-164.62592560561075,2.8634087897553826,1.2453397141325873,-2.082858448207537,1.1600326186331413,0.22503269342170687,0.9231393786261084,,
0.5418470000000042,-156.18881288304107,25.89521251243877,-162.69265982647545,2.8775996932529577,1.3374304491934041,-2.769907080231383,1.442160732727593,0.3632793126476872,1.1139578481327452,,
0.5538870000000031,-166.59958676117213,26.007890154534678,-161.40967994880307,2.6161752142770207,1.8304319082995528,-3.8683997926048974,1.7845463539560804,0.5443500430462823,1.1723647907136932,,
0.5609529999999978,-179.57736254823703,25.903075577687034,-161.22935602546247,1.9739908291960484,2.750145293183787,-4.437138673096235,2.2023361811538114,0.7551208590027905,1.1750441231876045,,
0.5729019999999991,165.67045636883344,25.405157149526346,-162.0769745951568,1.0207760352351265,3.412647589388691,-4.256161148349186,2.492712044923586,0.918600326449253,1.1090294567491024,,
0.5801050000000032,150.6645646831247,23.772125932841885,-164.13229371579942,0.19430536697132242,4.609153853704928,-3.752120745941922,2.5268539233592278,1.0693646657912455,1.0395523093349464,,
0.589578000000003,135.6180100492851,20.97178233303754,-165.15960231567246,-0.3156430988204318,4.173492077084048,-1.8263287331152975,2.5489131926073,1.239917149062827,1.1431710468875158,,
0.6015370000000004,121.49011142208178,18.001850071812786,-164.87009979472978,-0.47507823099717433,3.5931409404392336,-0.5680610010759718,2.433705089685211,1.228263889065501,1.2015637232857075,,
0.6085980000000006,108.06885436699352,15.608164799524856,-162.51425139092365,-1.2256141592145198,3.1730316513106804,0.4128665989492755,2.334567107326314,1.17151228976443,1.2363171245609992,,
0.6207390000000004,93.91769064473232,14.043611148092364,-159.50002692475394,-2.2329902071439753,2.3681528007080135,1.3021203372411199,2.48799713061178,1.1797461512823633,1.3137367932217858,,
0.6278039999999976,78.40727655620805,13.322025687713813,-156.7230280411793,-3.480676570613821,2.0095209104286638,2.5308043245532312,2.7450167800859724,1.254499608260865,1.2743979640116736,,
0.6397650000000041,60.3086664276868,13.326344354897316,-154.88877123135654,-5.593631510060487,1.7358007936138682,6.690966232093724,3.2138253743883,1.444007182229908,1.1861959087709542,,
0.6468220000000002,38.881217298559385,14.176599880971306,-154.2044232265744,-4.539259939536712,-1.799978301594503,8.062173499257428,3.829753439523859,1.642382437350579,1.1431633433881432,,
0.6587940000000003,16.786097492373695,15.491207634350053,-155.2144549105255,-2.2759974771135467,-3.6826425138619734,7.40860678724126,3.969555927007962,1.598157973832967,0.9231854997616955,,
0.6682780000000008,-5.821500636198591,16.559501374815856,-157.99570910789495,0.5665179687407134,-5.641710540029173,6.328685943539881,4.0662977486472975,1.5418658342221003,0.6937436049535904,,
0.6778079999999989,-28.57947898540525,16.059800296448962,-161.57491417557733,2.228722279724775,-5.634014078184715,3.8956080018233665,4.057999630093309,1.6124942404618645,0.5705856479262265,,
0.6871480000000005,-49.718814071797,13.892664689771538,-164.03944056411524,2.6272986009034187,-6.265328000871963,1.258524053751583,3.7681077441465876,1.6265119921683333,0.608983760995605,,
0.6966529999999977,-69.55820725639633,12.076180544312813,-165.07806929411464,1.5601497062762384,-4.8106898687049515,-1.2562582710442483,3.6246822489897306,1.3837544084704736,0.693496256387638,,
0.7061610000000016,-87.06242550466735,12.081176898754572,-165.20114550755216,0.3095226796505232,-2.8275723643697557,-2.297386056247184,3.30282674372328,0.8812470499721442,0.7179849266128253,,
0.7157720000000012,-102.29014414891009,14.217207287239525,-165.116247210443,0.017340703576545723,-2.6045572863867767,-3.7328399988926804,2.969309944900838,0.34976535360709005,0.7203548019338697,,
0.7228289999999973,-117.55994660773091,17.67426690260929,-165.96748679114424,-0.06892256969090992,-1.5144529809243477,-4.585167394850576,3.0090056167110344,0.06487284762443608,0.6801354005144378,,
0.7347749999999991,-133.16260225412384,21.183247887963095,-167.9847642092345,0.730695656853265,-0.49940859162211826,-4.877137129265152,3.0181096286595217,-0.02204833007522311,0.6461085260567814,,
0.7442899999999995,-149.09364033837412,23.97929190313088,-170.15298030292854,2.428485683691344,0.6680993258191672,-6.408676975044671,2.9878407529952726,0.004025048050506947,0.7998016046046754,,
0.7538010000000028,-166.87849470492483,25.520158556645956,-171.52413263398705,3.440426630717336,2.734322396602405,-6.610840864252347,3.2328953362065005,0.2019478693343708,1.222049473483104,,
0.7606170000000034,174.7611710019158,26.278033285876212,-171.36833264743893,3.8539377130915877,4.507494249245061,-5.598133941082912,3.2866449455187072,0.3306795279789232,1.637423756006227,,
0.7700609999999983,156.8551394827609,27.54722943097577,-169.83654889059383,3.6389440264554977,7.371646251900883,-4.935367382651353,3.1924450867000327,0.2604540951443548,1.924772278005354,,
0.7795660000000026,137.85797770025573,29.653674946846877,-167.78009769174017,2.1031093109093195,8.08888013192953,-2.7505936398949298,3.3575851147175433,0.22623311007680733,2.2232950904324027,,
0.789082999999998,119.37965513471022,31.98576669194888,-166.13880307947466,0.7186855143033634,7.311038591928484,-1.2169641615972469,3.201879565166416,0.2561222305392763,2.2126277495738,,
0.7986170000000001,102.44694867221423,33.588924778194276,-165.27225432506503,-0.989299208258148,6.464864123575587,0.14381583314370033,2.8429565248167665,0.38785505317031305,1.9968949181250415,,
0.808129000000001,86.28996597730104,33.67705838408978,-164.708744037938,-1.9649162341538562,3.679652281678321,0.4976474478638919,2.608312534852089,0.6766349926856661,1.8909999500675696,,
0.8176360000000003,72.39775705238303,31.915664197680943,-163.40088888809223,-2.307744210043963,1.2875404297194137,-0.3104406385758054,2.1536039658896318,0.9787410474866757,1.753912512633522,,
0.8269700000000029,61.59681650684107,28.634510063329262,-160.90510187634533,-3.3548897065173415,0.3019514632762857,0.20649547389459255,1.5777068160799568,1.1971057324497985,1.5750959421902224,,
0.8364809999999991,51.07746604296009,24.615736126480797,-157.7525095569608,-4.341982872904454,-0.6001948851326848,1.4639396019958069,1.477393335474928,1.418474094801651,1.560169381140554,,
0.8488389999999981,38.95502818428072,20.89885880052508,-156.0293245893919,-4.5016606613869685,-1.049043136193634,3.2025181018097766,1.783841490799965,1.5431932295797397,1.5535012589157293,,
0.8558990000000009,24.622667712670673,18.19867091668706,-155.30609732585174,-3.9546762961642203,-2.0208004778412927,6.504737123226021,2.2546701568053304,1.5854620587484205,1.347549015557142,,
0.8680530000000033,6.903271572467015,16.845956122345527,-156.58293707916746,-1.538471845640401,-3.7376344271521065,6.8892823727514525,2.987453100954019,1.6027179203571473,1.0298543966260651,,
0.8775630000000021,-12.003398979161684,16.245625476962115,-160.17356792767708,0.5932643950813834,-3.957579131264571,6.355704273803755,3.331026458559054,1.4295675351788901,0.5454312237240673,,
0.8870500000000021,-28.184304929923666,14.468836791769277,-165.1643028235425,2.094611989546071,-3.725927805805863,4.316247611124422,2.876828685477385,1.2551152785134947,0.04290518361188638,,
0.8965820000000022,-41.53822025368583,11.336632315880584,-169.89483653091716,1.9116615320084653,-3.9195844127270267,2.054572631366526,2.4113142355378057,1.16081963222359,-0.13907720621749292,,
0.9036359999999988,-53.730162952980294,9.021499239515759,-172.88828620156775,0.40163256465952185,-1.8971946474593966,0.6751903473028641,2.2978281809693595,0.8258218206474649,-0.1609407028707234,,
0.9155920000000037,-62.50070746371339,8.99741757025846,-174.98548803967148,-0.5225035973853775,-0.6592062237962583,-0.052639550568640135,1.7156693011065978,0.19689122148349938,-0.13786725899680075,,
0.9224299999999985,-68.41070756304022,11.453854185243411,-175.7041474725624,-1.2911941459169116,-1.1909852714337477,-1.0071705095827017,1.1918871189416427,-0.38705608928442786,0.07317775451637412,,
0.9344010000000011,-73.24598726817207,16.21836414821941,-175.79864063348725,-1.8264738523313955,0.012581372480714673,-1.770783530654509,0.9989462320729735,-0.8736702151284107,0.2195203936485983,,
0.9414879999999997,-76.10464761125061,22.38385039542015,-175.92458592684432,-1.0700795936844143,0.6875643837080394,-2.256683656382635,0.6179344020055645,-1.1850372576977484,0.17029623777029293,,
0.9508989999999997,-77.81202466324545,28.237308458172254,-175.4724078700349,0.18841409132269873,0.5362787441426384,-2.400711329236642,0.3853110963827645,-1.1388952482182844,0.24205066138103234,,
0.960166000000001,-80.10601112227701,32.36955587490833,-174.4816870355926,0.9003621176669129,1.1122477904476877,-1.902129844179894,0.45608437889947057,-0.7834909927742798,0.43492625501468646,,
0.9791230000000013,-86.7592614273974,33.64767534252702,-174.29853259537865,2.13090953016563,1.3048162447222493,-1.4651890331091848,0.6159160215649395,0.1766708720648613,0.38520148627015793,,
0.988630999999998,-92.45943780930858,31.312904213284988,-175.6279741537873,2.043663214111894,1.2181601668858468,-1.5305339890280873,0.912452233116927,0.5432725394636021,0.6097119300510606,,
0.9981429999999989,-100.11261796597205,28.285894099708987,-176.2665740771953,1.5767280289639451,1.0320337882564643,-1.4756998675815902,1.279255226848325,0.6871268987789464,0.871288481503211,,
1.0079490000000035,-109.20556126905987,25.720120648527985,-175.10265953396222,1.5890689428787772,0.18075346601659711,-2.050217217630275,1.5680671097844268,0.6336280786581365,1.0672851981924825,,
1.0174629999999993,-120.56181553620978,24.47639374136262,-173.29361636858627,1.8764592226904155,-0.4176493409599811,-3.082106976795049,2.013209040245808,0.4527759887498554,1.3339316553630305,,
1.0269710000000032,-134.3710782652517,24.593916780935295,-171.711763258502,2.2992005140868383,-0.5465145433492431,-4.301943227809297,2.487368286854111,0.29954807024380986,1.4712153623216473,,
1.0364700000000013,-150.04467954397754,24.93823180171784,-171.35355696839832,2.8379733612487716,0.38267788878294673,-5.299407014585191,2.8197132375868366,0.34345595553031577,1.3921910809359381,,
1.0459850000000017,-166.76273772370496,24.33360738229426,-171.937460407076,2.7416122807390755,2.0148473270520433,-4.717003605814045,2.98485751282416,0.5502618806315478,1.2832262096094047,,
1.0581710000000015,176.64212172337812,22.428440659617948,-172.42546641463636,1.9006340452710422,2.81089584948164,-3.0254604124381803,2.963582365705711,0.7779160573765966,1.2231475741833668,,
1.0675990000000013,161.34136757480192,19.33353098694874,-172.03836737449652,0.6781428568235139,2.5139668589993174,-1.3492549586217375,2.748323391681492,0.9844499320823779,1.1682316044902945,,
1.0769260000000003,147.50497346118223,15.595240622524594,-170.54918654937734,-0.6443780573185476,1.818441015860116,-0.21994765278744172,2.4964563115244762,1.123709016594371,1.1250126316812723,,
1.0841040000000035,133.86295122449562,12.147432153481834,-168.33743785518243,-2.174628527655899,0.9908995994045176,0.7200948182618948,2.478848586297803,1.1494024461314345,1.0900137893539048,,
1.093426000000001,118.61629868274308,9.81541579522908,-165.94701524521176,-3.968533221041505,2.0703397945689366,1.0590568503468292,2.816492583235274,1.108956462154732,1.0491696180233525,,
1.1029389999999992,99.46642109226069,9.291180935850981,-163.644531377127,-5.771086254687929,4.328801126193215,2.9669423194749713,3.619534526603169,1.0842471541264218,1.0822393137917172,,
1.112638000000004,77.94531845494284,11.279124112533255,-162.21070536643737,-5.847669974638883,4.4891439655857255,6.353894741833963,4.166101838611362,0.8650147904617552,1.04029066214314,,
1.1221450000000033,55.91791400944891,15.629374011683005,-162.99018524963589,-3.9099281054081962,1.8437578701700814,8.450621461121267,4.347257441252584,0.4629086217076895,0.8589139883700264,,
1.131655000000002,33.01762544799396,19.985534284832802,-166.41612660210885,-1.2080002183022494,-0.0941484479390887,8.541813251627481,4.4326017716455155,0.32734192204931173,0.7133058867646596,,
1.141167000000003,10.281613663261577,20.368166839177707,-169.01810950349233,0.19543170758754094,-2.7384564763627455,8.067470556106588,4.183735886487985,0.8437423131468329,1.0463426772770448,,
1.1506770000000017,-12.175370317797677,21.727734674715922,-170.74285065034542,-0.04255783319765824,-5.326393841523058,5.44809262532089,4.170075460995712,0.4834623374367364,1.2684790749619774,,
1.1600120000000018,-34.36031112576647,24.154838595886257,-172.15702234593394,0.47391328013114303,-5.3033116062564725,1.7289280977743093,4.107139876672301,0.14454377716386424,1.450492241092172,,
1.1695250000000001,-54.93445099722617,26.523679680149325,-172.50324989246528,-1.1083910057431372,-5.593283171502809,-1.3350742931720723,3.742409266234604,0.04124482169494396,1.696851287996855,,
1.1790299999999974,-74.47440305858457,29.90304630506581,-173.7972918825043,-1.113655621921009,-5.098623452180243,-3.8668514000731227,3.4911778471800887,-0.24722987050285541,1.597437933387806,,
1.1886149999999986,-94.48057816738185,32.811258748596245,-176.67105846031208,0.7132334137050789,-4.088250198233463,-5.599656373431363,3.4427891537492648,-0.28636255458643356,1.519599779866519,,
1.1981269999999995,-115.65299973769089,33.68409805143097,-178.90271657787562,2.7415218586056778,-2.934459579207694,-6.911117699997245,3.534941272806024,-0.036059641169579125,1.8873303685590372,,
1.2076470000000015,-137.35207268442318,32.2935768931449,-179.38153809157117,4.77774562997829,-0.9608515992077973,-7.631998733737324,3.6276341073091127,0.32484593080929114,2.27645389048115,,
1.2171379999999985,-158.09406346890012,29.94040051906917,-177.25734077201145,6.113176733426895,1.8672617706204844,-7.550456573151155,3.5329445245150155,0.5616960139495467,2.5725349002274007,,
1.2266759999999977,-177.79234596354365,29.37574854291159,-172.92417595357267,5.980895223608479,5.050760719955513,-6.650896595035081,3.4025130773666246,0.39363488403172153,2.814259160260768,,
1.2361039999999974,162.4570739207388,31.15059155758096,-168.77204267448428,4.161655347571298,7.047920270962821,-5.241724931891277,3.4284693168423956,0.18312815655445314,2.8160457846175286,,
1.2456099999999992,141.58302760202392,33.71070168891302,-166.97118727971974,1.95581578263821,8.168406052871994,-3.590899954523579,3.5563837280337762,0.2333898339514017,2.593151574345419,,
1.2551229999999975,118.88089391115261,35.436142667650365,-168.5282748864437,-0.324867835611748,8.06355065628103,-1.6851198023447558,3.7288523599880645,0.450913647559365,2.2608357402336474,,
1.264651999999998,96.40497190206409,34.44144995190319,-171.41716907403224,-2.2967205254032423,6.569469920318732,0.012158145379284646,3.596789790804531,0.8290139942048125,1.9915957244880615,,
1.2739929999999973,77.0512019630048,31.001616641523498,-173.69084769374174,-3.3838385996838554,4.8761911274938345,2.046420941960125,3.159309528116719,1.0537605930791376,1.9365199466645011,,
1.2836810000000014,59.66721879776816,27.12657646517013,-173.8034919496841,-3.1420487719641206,2.3220401057487523,3.4168036533828268,2.959277792208571,1.0498611896503853,2.028794773905456,,
1.2931919999999977,42.753217306031644,24.453031438528242,-172.8362018712477,-3.000769014581306,0.8949699200695644,4.619974401815817,2.981550886790315,0.8369010711672679,2.0404130477481925,,
1.3028860000000009,25.637362354688435,24.020828848640015,-170.959927687762,-3.244716705974203,-0.5531944991323318,6.6195954416156955,3.083643621219717,0.5109010612629358,1.9318923301072095,,
1.315061,7.478500001576085,25.432867993293577,-170.80495566731486,-2.6173674736569668,-2.6003567048011105,6.617839651902827,3.3022710864931466,0.23795688655149627,1.668103794349092,,
1.3221190000000007,-10.650757752164793,27.05043222871841,-173.27328922362966,-1.85970066041077,-3.9027246937680027,4.969320122625133,3.262549481170886,0.1286996345055099,1.2147041650600754,,
1.3340809999999976,-27.850718225650827,27.751254520458843,-177.71647733447895,-1.5331646649758461,-4.261574665198892,3.2343175885173676,3.050971305884553,0.0985431376740583,0.8066510293244435,,
1.3435910000000035,-42.394508385540554,27.125832694576037,177.61316242726596,-1.2135733543392329,-2.237609283065439,0.9039807044082051,2.5769269620814743,0.11861229527023734,0.547195882170601,,
1.350282,-51.98249030940006,26.109604015643207,173.57567288037836,-1.416883519068835,-0.8341609310016204,-0.3817563491434551,1.7201280229523006,0.06091244535641886,0.3376700807969196,,
1.3623329999999996,-57.505816448945424,26.06090910908843,169.71983972201588,-1.4681445728523561,0.015525059988583428,-1.139044788194924,0.9738614435141674,-0.1459552031457833,0.25334744320694413,,
1.3693969999999993,-60.00315625710966,27.71137411787305,166.59122791062697,-0.9415296950570443,0.7214772006552973,-1.3368382090353057,0.3508719089889883,-0.4129342943626335,0.22140370417154212,,
1.378897000000002,-59.97390049694976,30.89359260538025,164.3589283237774,-0.456583238296769,0.13163277775548793,-0.9609849813880083,-0.18848842089780807,-0.5984723585728732,0.21091215136910912,,
1.388584999999999,-58.580558296789974,34.95112827109787,162.8491729706088,0.4269640074674006,0.4140656448018828,-0.6168059718527689,-0.4804834668982683,-0.6872487593914225,0.2190111789473315,,
1.398102999999999,-56.16010920409191,39.15424486775665,161.45614670657164,0.8404400947062505,-0.32603714614825746,-0.09915611091412384,-0.6510174119309139,-0.651050339099629,0.09986530812331931,,
1.4076050000000038,-54.418602337497866,42.773089132115416,159.37136166355245,1.5261248529572666,0.06048858122617501,-0.020085504697525697,-0.5121700741388724,-0.5671281312863556,0.00452755683550945,,
1.419392000000002,-53.675162310426636,45.42811696868698,155.74420977516226,1.4685465681025351,-0.12118186571762074,-0.16193042974335584,-0.31741554857975884,-0.4288871900257333,-0.20885066269837946,,
1.4264580000000038,-55.26377831852972,47.10209387604194,149.9176666257722,1.2467649817509794,-0.1631435041080959,-0.6528669285245481,0.02993758721668072,-0.3860003153876026,-0.35116439333576277,,
1.4359699999999975,-59.70775205020261,47.72710369697818,142.57039088671823,1.6728668017747998,0.683684663166525,-1.3187647798740594,0.41916899443784683,-0.4347791269007387,-0.2786768735634762,,
1.445481000000001,-65.4493612878224,47.38988040077438,135.3396394518727,1.7660346250915127,1.1193303761469637,-1.7218594371659055,0.618179071555258,-0.4584804499235993,-0.09139973624874537,,
1.4549850000000006,-71.76394901581598,46.67320331494477,129.2062146484928,1.3193191067284218,1.0723166183905952,-1.9333251595638956,0.6732508738872491,-0.542053207179352,0.1943333600471022,,
1.4645790000000005,-78.46780868551568,46.22537822472796,124.23380802644036,1.1396018316325032,0.8097896878299143,-2.330227430971546,0.6088486237165692,-0.6874763178097855,0.4821456077777331,,
1.476537999999998,-85.86194516046413,46.269391444632596,120.54300563010273,0.9379752878790236,0.3460853078122161,-2.735287187186583,0.5209921916768899,-0.8670460402893768,0.8263522432678246,,
1.4836099999999988,-94.67381259999719,46.63740485538781,117.5232318435649,0.3775846467895705,-0.4497689099613583,-3.1004182123372814,0.4943517466225628,-1.0986381750594707,1.2814377751033268,,
1.493115000000003,-105.06201984982202,46.94830740658595,115.23733425920136,0.2550785245199501,-0.7211983243474089,-2.984570341915172,0.5349359935431935,-1.3071378979923494,1.7361002775043484,,
1.5026220000000023,-115.58960739541504,46.72503633689624,117.23107127787742,0.3857922026589151,-1.3635593844460887,-2.8241900167049105,0.6714843429806824,-1.2624401799482352,1.9396227291440322,,
1.5145809999999997,-125.89130807184664,45.41294171785062,120.21408358621105,1.0091886878519603,-2.7439388180351654,-2.7949365637363326,0.9095502845578902,-1.1196401849417044,2.085571066183377,,
1.52149,-135.84343596906132,42.895332001784624,124.62008323522673,2.11298845109104,-2.2206907348048683,-1.4922843770864385,1.1814781049363705,-0.9304834330814304,2.272823565912057,,
1.5334369999999993,-143.8922528746464,39.74610735051664,130.35330111618683,2.481949868969276,-1.3313340963062446,-0.06473391374969875,1.2255147284563974,-0.5728244223287879,2.214658081085644,,
1.5405170000000012,-150.46832543049544,36.3777376902392,136.33457319889357,2.2281293005295617,-0.45978149129362805,0.16838788296668367,1.1899466876401328,-0.28930796165835193,2.012284290811582,,
1.5502060000000029,-157.1834087189808,32.705306787555685,141.1013860404864,0.9068409263498654,0.7668181727652681,1.0527660215494064,1.304744832853861,-0.17881040639581827,1.7197935099672037,,
1.5621590000000012,-163.74532516271896,28.992118938754174,142.1044086803411,-0.6571689362299395,1.7848839711974946,2.1589799358530333,1.3307186193837792,-0.1403193280253034,1.2248627776939718,,
1.569237000000001,-169.69495789861915,25.72903675843683,140.9290399591655,-2.0945541442568003,2.7762736530731824,3.4724563252987695,1.219007138984383,-0.16782485013263013,0.6563489905942302,,
1.5787339999999972,-174.29449861079044,23.359788118287135,137.79600974534844,-2.5784433139793292,3.3383969040705916,3.812897062204556,0.9281793356824168,-0.20250215626308649,0.11559700130823,,
1.5906870000000026,-177.96462988762647,22.399115143532605,133.48879834100308,-2.1881117302689375,3.450841120710403,2.772535853559284,0.5995803058614166,-0.3471977115051198,-0.2064610152575353,,
1.5977689999999996,178.41760853640548,23.099352094579316,128.938549093528,-1.4897484057486274,2.799942783430094,1.8115058386530871,0.311140941838097,-0.6011271822900757,-0.247952334812098,,
1.6072670000000002,175.010715957052,25.65800758369007,126.97623785017893,-0.5727322287656509,1.9756645521095384,0.7510268835971612,-0.035354283298949206,-0.8055758140846692,-0.11022857007860806,,
1.6168479999999974,171.5121728288845,29.369814234361286,123.9790727853021,0.49629461549769877,0.9390875248422552,-0.03899362595857811,-0.2770882360892604,-0.9323548553568107,0.18846309846468395,,
1.6263610000000028,168.07261887884022,33.503129193025664,122.3499147724709,0.8489317530358573,-0.07376043552437472,0.16949406442827722,-0.40426451985683537,-0.9370937122843996,0.5071493559501172,,
1.6383190000000027,165.3613085521918,37.72403191702586,121.67330218791336,0.9914733992364363,-0.8110079933222479,0.2621312887600819,-0.5130589476209905,-0.812773216276305,0.6547182672946394,,
1.6452140000000028,163.2421178660851,41.649954428872064,121.23931156283774,1.2843632080170753,-1.1872351308274298,-0.3000003555478857,-0.5272723705923587,-0.6795991613348862,0.6440809951610862,,
1.6547120000000035,160.90374367403646,44.378173269889544,120.28358441724826,1.540940192527808,-1.3260609151948644,-1.0971795040071524,-0.31913478649408417,-0.5686973590036056,0.5941207579204283,,
1.664239000000002,157.59573531741893,45.4609236413166,118.21257411558024,1.4149572530059906,-1.1715860709783172,-1.5910454041690092,0.01672439523537669,-0.5171042040144632,0.5070185115408283,,
1.6737419999999972,153.30386058990882,45.25289755926794,114.78619025826468,1.573296995411802,-0.8761100040056791,-2.29721546489678,0.28495261150138645,-0.5279746141535805,0.30859074616349047,,
1.6856890000000035,148.44250057718807,44.075424864764045,110.27230011295828,2.005624406909394,-0.565158451227692,-3.0485349102913837,0.4624357272496835,-0.5564695444053069,0.09810796359818641,,
1.6927579999999978,143.77351021223456,42.272121441980254,105.41088864000808,2.232439286948637,-0.5452131236179952,-3.0585931564981004,0.5329432014279734,-0.5454679748906022,-0.04162258818191375,,
1.7022750000000002,139.71829716677053,40.58686754112835,100.88827353443313,2.6266911558159,-0.7709400509552045,-2.7077488688682756,0.4482800839588238,-0.5212489294935295,-0.08422770490041755,,
1.7117119999999986,135.92486468492118,39.5945242638744,97.32139246323973,2.4962255227030283,-1.2234768969957768,-1.5972101839082293,0.2691154638833501,-0.5449759449727691,0.07281894855573968,,
1.721226999999999,132.75119427644853,39.67741547426345,95.0377012540116,2.442830276140716,-1.7768602471531763,-0.9838530499318143,0.017537446181837963,-0.4876225577070836,0.2821452661071815,,
1.7331590000000006,131.53067400797914,40.61857003597552,94.457702973121,2.3411684924008047,-2.0997267035573275,-0.443189595694554,-0.1868106674589817,-0.19795717391083292,0.4056794703181701,,
1.7402440000000041,132.66168915753488,41.78272459593568,95.74586815713018,1.7433778837062168,-1.7779260865386246,-0.6673290031834345,-0.25614510815917546,0.15379659517730196,0.4834863197894761,,
1.7497570000000024,136.49094536274959,41.80071778916027,98.95751329886352,0.7242228241565747,-0.9744387411917531,-0.9558208677226416,-0.07934663236717247,0.5681249228477717,0.49235151395544324,,
1.7592670000000012,141.39843989226543,39.93595385834258,102.7149404958743,0.5005247586439094,-0.30331850089437173,-1.0604350565678677,0.22627759525646865,0.797026666355499,0.4391448822152959,,
1.7687810000000042,144.34781093179396,37.352011251724456,104.33019504129497,-0.8922055675429564,0.7661627201892268,-0.3457391739486718,0.39023744320469567,0.5647759690499228,0.2603520074263293,,
1.7782750000000007,145.62263333345152,34.86640187256495,103.06211257784199,-1.296302122337436,1.867814388111109,-0.2242653525839116,0.426076347646873,0.31406590969542914,-0.1169810262025954,,
1.7877989999999997,145.6376660146003,32.15159151128041,100.22715557818165,-0.7340974733642153,2.3343673620449374,0.18178495505601736,0.5205708156026971,0.1083197994656468,-0.30842929522745693,,
1.7974919999999983,143.0677101738255,30.001254709303776,96.67381620499268,-1.2419462129228334,2.4222628916055178,1.3926749680578387,0.4742651656329266,-0.37485100259818943,-0.20685289906089738,,
1.8069950000000006,137.82543196020805,29.475038279615504,92.85992842727829,-0.45532454394922095,1.9669619674287078,1.3367602947682224,0.1593451522915248,-0.89786855946097,-0.006110510805970944,,
1.8164969999999983,129.27911691816476,30.543142214238355,89.90745415223846,1.835979617338197,0.9847644630094416,0.8146244385687018,-0.20580371213002654,-1.4810897490372075,0.5245110591088158,,
1.8260240000000039,117.06887316604497,33.146591072050946,88.29997623047059,1.9170652203383298,0.1639529737642246,1.2774186241266696,-0.5911055766486475,-2.0586222178813394,1.2902847606402261,,
1.8356250000000003,103.25160417602255,37.52738122824685,85.79628072902338,2.367872942986885,-0.7882376737994821,1.8784814529191654,-1.044851268926832,-2.1866964427271625,1.6027245278534485,,
1.845120999999999,86.90625621701427,42.903993647704716,85.69888551027297,3.5594724527073924,-0.29521208111505276,3.0786574930924338,-1.2034028614634729,-2.4411652889859847,1.5903568923019729,,
1.8570640000000012,66.70113782340874,47.415621937964126,82.4374763080629,2.4410754956500456,0.4012174315165564,2.9720807748854243,-1.1255514327656515,-2.769527692341248,1.7307457758648892,,
1.8641429999999986,45.98368344858653,49.611088044759185,78.21721353448439,1.843511664894306,1.1121159813384769,2.6468248687307523,-0.8326251359852797,-2.6529836126587236,1.7962903769579417,,
1.8760079999999988,27.458976581139588,49.392107393765706,75.9552197345903,0.8188637686822335,1.7270992709332524,1.7297886191612581,-0.44335778527533753,-2.3681649090405603,1.9169026432401113,,
1.8854299999999995,13.282068217020258,48.3464108273943,77.82863664679739,-0.2437346050214095,1.419183788344366,-0.25321697665334875,-0.173914362073702,-1.8727860711784206,2.0412681646282476,,
1.8924340000000015,3.609737080366396,48.259010395915645,78.97963266794562,-0.9333295353649691,0.8943537041256726,-1.6698850084835224,-0.25190501888205025,-1.2642083256909982,2.036164297958038,,
1.9044549999999987,-3.4915830764636997,49.18919607110527,81.42647633719453,-0.8298041249157179,-1.073073313202675,-3.2619791563683136,-0.34626987327765013,-0.8884919025835822,1.9202975692995607,,
1.911518000000001,-8.671888371812386,50.161032634800726,83.05756717957371,-0.6337094472598107,-1.8605260346451087,-3.2149266688252855,-0.28200152529096956,-0.6343047238594509,1.4813556674604396,,
1.9210350000000034,-14.013781208206504,50.60477219420043,82.23513559764517,-0.4946242202764091,-2.604024378848903,-3.099053364801061,-0.1730867414530796,-0.6616957960831631,0.9922555523964952,,
1.9329870000000042,-20.333743979445828,50.12079549660382,78.51559684338632,0.23009897804498006,-3.624740611645927,-3.373184440181252,-0.037448831583521344,-0.8103267524915934,0.5197180664358496,,
1.940061,-25.68235909988081,48.40148433142199,73.32330899654406,0.5547340660032916,-3.429211244193259,-3.3835181704310293,0.16832624927932588,-0.7623512275248592,0.012222984278296408,,
1.9497550000000032,-28.86234449700085,46.12538633645711,68.42007609577311,0.6727594991791213,-2.3144395325834197,-3.0774578018362937,0.29651074363754754,-0.5599915796416426,-0.29435228734936464,,
1.9592659999999995,-29.316169070626355,44.53702343680882,65.04457368223422,1.0678752434824101,-1.582646115494383,-3.118494428092472,0.27827321133088256,-0.18725718618480777,-0.38716742949068444,,
1.968592000000001,-26.10603849375734,44.36024687519156,64.17456349864621,0.8589447377613403,-0.6450758069566345,-2.905810665164018,0.2460889596152633,0.3958571924233833,-0.3760810633859126,,
1.9780920000000037,-18.88982987292249,45.13745956641947,66.82760319677095,0.28555189733433883,0.36792360013401276,-2.456595994045329,0.30826837432643917,0.9930952407352395,-0.22159071726111304,,
1.9875310000000042,-8.127852349596917,45.58683858001223,73.04221470329846,-0.2338469904305383,1.2499742517968375,-1.535063885955182,0.46377082838826783,1.445078065429776,-0.02516473270742768,,
1.9972270000000023,4.505704370436448,44.22174022946691,80.94201802502587,-0.5811326639165494,2.045227772023164,0.24279989386058276,0.6979384285226155,1.67359847123044,0.05176901234964448,,
2.006733000000004,15.386659759598292,40.60134329151992,87.36391864239386,-0.2534499481143395,2.6539163578091,2.6376196601542192,0.9079929037420136,1.515415394336019,0.05320105999833535,,
2.0186920000000015,22.04597840788289,36.29046492930366,90.25464960526709,0.5711881096372875,2.3662272834266553,4.470138051732424,0.902229270109367,1.0170253242140874,-0.025995862510915003,,
2.0258949999999984,25.12645091529294,33.24145413138203,89.62099794792894,1.010324159540494,1.4602486119507783,5.323417825631225,0.623411990855881,0.5005179354707257,-0.27079123498385704,,
2.035451000000002,25.54871801861387,32.1077762583326,86.04527996942141,1.1916627750531004,0.9876274853108188,5.4782106820029135,0.23777728098105605,0.06054563206210023,-0.5696893347235338,,
2.0449589999999986,23.907058122253336,32.91964557764827,80.45030071208289,0.9851666425599626,0.5808950038350776,4.187456275467488,-0.18834845893304547,-0.25526420869704836,-0.75357518719015,,
2.0544750000000036,20.80380132201101,35.24393100800702,73.93913548082827,1.012131274822714,0.5289608154322145,3.223960668168834,-0.5632576041283326,-0.39557096286662513,-0.7557672966587782,,
2.063988000000002,16.36885042386807,37.91203055341354,67.30709256509591,0.9534637011621492,0.28214927748726965,1.9445368878635725,-0.736639067849732,-0.49162597391874713,-0.5845233520109002,,
2.0733140000000034,11.449957821526098,39.90378003264839,61.57256414347598,0.9738478998115141,0.18167284122918811,0.7454334158475064,-0.68664164440289,-0.516629189689954,-0.3055193747166367,,
2.0828320000000033,7.184100387743378,41.51178153380607,57.8183772270685,0.9684008545056308,0.33822846090926056,0.03906492783163451,-0.599512109390546,-0.3952935734922547,0.03135580750454419,,
2.092164000000004,3.95274160242777,43.1753648092533,56.24259250579579,0.6089927531926694,0.04769953767671591,-0.6569705339123718,-0.5327212364968799,-0.21938665911280134,0.35989286860855874,,
2.1017399999999995,2.092685896514778,44.717345706593456,56.3730421563674,0.18003521801810024,-0.45126828936619456,-1.3145109063466471,-0.39677294404525676,-0.052800935164572044,0.5242461932503886,,
2.111280999999998,1.4487396782508024,46.186496981045664,57.18663910282388,-0.19254935181586771,-0.6495728678978119,-1.6022425578666832,-0.28528994160196763,0.08324928260600283,0.48728842377670484,,
2.120773,0.7798550057174081,47.869936245817726,57.36506348052203,-0.6040584901820263,-1.2493462539539184,-1.9242126268953401,-0.32238476729970433,0.10334937590727689,0.3612438443742842,,
2.130467000000003,-0.7605289828150628,49.56570920864668,55.74287829857307,-0.7991868284149107,-1.9174038296001215,-2.272741917891532,-0.38586905722375714,0.015366788472411507,0.12400618394438968,,
2.1399729999999977,-3.1922991288557565,50.965346452484205,51.77085361516815,-0.793727130822033,-2.292190505507234,-2.7221277335531644,-0.4014868869707206,-0.08829165967811714,-0.23073916567463384,,
2.1494830000000036,-5.688596947544079,52.04486578888608,45.75101142476875,-0.6628072681844288,-2.002977675269443,-3.0325881967781654,-0.35952357466503865,-0.09602603923008671,-0.6457395367106973,,
2.1589810000000043,-7.617387124660984,52.880005344222084,38.773162589333744,-0.19459431603561725,-1.795777135460113,-3.428967040729706,-0.2788335032381739,-0.040760187288217516,-0.9303945201362179,,
2.168497000000002,-7.020752599513197,53.55955656414108,32.761373980734845,0.29492050062223735,-1.8778613536549533,-4.0012019008204565,-0.013527393532326161,0.14319252336238245,-1.1546936962677234,,
2.1780159999999995,-1.2142233615730418,54.260681624680686,29.887643966665294,0.8293196836159027,-1.1018064725614412,-3.8272588288867015,0.5204276572860086,0.4632866464317371,-1.3876144333569136,,
2.1875190000000018,10.48546208498803,54.575360093345964,31.72811712394161,1.4082512483230134,-0.3235892709403574,-2.9890774495084282,1.1454532916127935,0.7361304564883229,-1.4240978960591544,,
2.1970329999999976,27.067073414360397,53.27711011257959,38.11517447241916,1.3853144424942812,-0.07972779592654775,-1.9237899886952499,1.7533374712182506,0.8897288295250104,-1.3143226033337214,,
2.206597000000002,45.39667883209132,49.17264935285512,46.017556131725755,1.4265420274046776,-0.03290616102196737,-0.14937763309123767,2.250702443786845,0.9196746621350348,-1.2194782413925818,,
2.2161490000000015,60.87521118117517,42.65029156751756,51.734139589115046,1.3450116559058345,-0.7959373669782157,1.2372158317156776,2.394494714072327,0.7602077269080159,-1.032269437547677,,
2.2281270000000006,71.81898220448853,35.51906835688842,54.92212766968451,0.611615897401627,-1.4645852998893458,1.4452874022352238,2.1550437768096598,0.5141659589827593,-0.7596192184580641,,
2.2351779999999977,78.75919239286421,29.553422300895715,56.66185989840752,0.608471467131399,-1.8424966038327104,1.5958356486945158,1.6427830948892157,0.30002776454589547,-0.4134352547772705,,
2.247135,81.32507934314664,25.932945622036854,58.39214822971691,1.307617594468466,-1.792707339305652,1.7594319656115818,0.853090225103051,-0.00298452427903441,0.0937724733006068,,
2.254204999999999,78.66715062700654,25.110025911815345,60.55960729880406,3.500576485813775,-1.4599348915785433,2.7621032496683187,-0.10407450981383333,-0.4951751095865848,0.6497403156775565,,
2.2637140000000002,69.67382887651343,27.061846959124484,62.455018100942105,4.850818631886752,-0.2655694805723717,4.389300980108291,-1.1152660221260722,-1.2348625038783942,1.1568969229330963,,
2.2731309999999993,54.19832209969942,31.03849545882963,64.55907074382105,3.621844049138687,1.5059843640878687,4.845362273237655,-1.8732906431712657,-2.11080876572535,1.455867010156108,,
2.2826360000000037,35.07099495291157,35.54697028636037,63.757784669682714,2.026010740381597,2.322768057891841,4.755488852809549,-2.1412680897050915,-2.538945915638325,1.454241172152196,,
2.301540000000003,-7.0392161985569395,39.38272862076591,55.753313172181485,-1.5315303211729796,2.1541398744891147,2.782662991259706,-1.7899541840259054,-2.78000987716616,1.368547977173463,,
2.311049000000004,-26.065648367124666,38.528046388323034,53.2118847787761,-1.4781145774098032,1.8531485409355921,1.026449666655611,-1.524380845284646,-2.5371314477972455,1.4869652494528034,,
2.3204550000000026,-42.309935447569295,38.68453241008761,53.73074864812051,-1.5737010064280634,1.9027855493767531,-0.5258635892286712,-1.4774960401001733,-2.0578167113748873,1.6172895184689724,,
2.329970000000003,-57.46894427431808,40.863009177928724,50.41625670661781,-1.2427729338047078,1.5374354269284356,-2.0050619042766757,-1.7983509522605405,-1.5307049643855866,1.8178407076886036,,
2.3395539999999997,-72.31169184726623,44.93285010685344,47.04200336844961,-1.088827636732008,1.2729686665501345,-3.0354646817374236,-2.0562684111198077,-1.0522367275034474,1.8772082063108908,,
2.349069,-88.54679048406138,49.75487224547674,41.47469578719166,-1.7516138767737983,1.0355709230878716,-4.038771786575789,-2.251697428317461,-0.7933802033297801,1.8149819706551147,,
2.358583000000003,-108.55462240452785,53.284540608557435,32.53281944036677,-2.3859620828270867,0.06043019729259939,-4.787186070167334,-2.417072740669233,-0.8752559168409036,1.9093108742481826,,
2.3680829999999986,-131.20636063911695,53.78338219066878,22.687744868890753,-3.1334142084303562,-1.070443682558586,-5.443399367480879,-2.4451334493406987,-1.089592699882313,2.257744174477108,,
2.377603999999998,-152.97059733395525,51.42047985745763,16.606750982942984,-4.340757856190027,-2.9071277921794367,-6.732005447505484,-2.3557501600731627,-1.2596780321010157,2.817442297955256,,
2.3871090000000024,-172.422074366091,47.988925946737375,21.983401494507284,-3.4192699506935216,-6.0963598461070605,-7.010399004350108,-2.1137412436093803,-1.5151735178287982,3.487185917771737,,
2.3965450000000033,171.11007811238002,45.59565929200996,32.073327051148304,-1.079887482868258,-8.099226266271945,-5.550041371752387,-1.7653729665363536,-1.4826252363933168,3.873901505192023,,
2.406058999999999,156.16325351698535,45.65703749630928,44.92694490765918,1.6257714978091042,-8.83988257775957,-3.10796640942218,-1.6201159624444716,-1.3317518644288386,4.063510147616994,,
2.415559000000002,140.81119679226086,48.51624228360488,50.97029326839295,3.1611072764721486,-7.9968650672815205,-0.6920373480768186,-1.8672614494784137,-1.1225760863957817,4.0161137169144965,,
2.425093000000004,122.9997169971353,52.56539382774212,53.28165149239597,4.50743315864841,-6.0882504873186445,-0.028095643544530643,-2.07215773673583,-1.2411362086414488,3.7873954176089466,,
2.434600000000003,101.53238410807005,54.773360290358234,50.51080552981057,6.314674401519667,-3.86296682769706,0.14834484856496125,-1.9719818533023494,-1.678538580372199,3.5435382109726166,,
2.4440949999999972,77.55434838103486,52.81940403435777,50.4205230990061,8.126597036287807,-0.24321064487569083,0.8849658121736447,-1.4567969843319537,-2.4650354503467917,3.33371273552863,,
2.453536999999997,55.31605380345467,46.690274405141174,51.08168648535579,8.381135693992727,4.182352462139763,2.1595531253984026,-0.8529689296316709,-3.0079981632294346,3.287658624596851,,
2.4634089999999986,36.89882880712092,40.30850615257646,56.71575241273349,4.661149390196293,8.138978763091659,4.723187700843531,-0.5345884543448538,-2.9220314371392115,3.5225274166778116,,
2.472915999999998,19.315360366475684,37.031179435661606,63.8916150500399,-0.0759155104459683,7.446964432270883,6.056145712156591,-0.7823725452771971,-2.7233830549747133,3.5501422135888983,,
2.482419,0.5342667886776287,37.579318777393766,68.94706745100144,-2.8212053576869693,4.7704436676829856,6.488676612578609,-1.2855109836286525,-2.7055355311612477,3.259847499438789,,
2.491934999999998,-18.60536759304323,40.14595430292028,70.89455325002062,-6.668098371653998,3.71646507049996,5.380732363798405,-1.499543285630245,-2.6251885495954257,2.8603321583713837,,
2.5013310000000004,-39.99294396802664,44.94487549275717,68.71359043700612,-2.8091750830835323,1.0481106519832146,-3.146786163322248,-1.9811659572641738,-2.6191033568604345,2.589367447537794,,
2.5106000000000037,-46.1849618515428,56.49474126417013,72.61969199257094,-2.3544136990706863,-2.5708466812369406,-1.0798032864620002,-2.429311717215771,0.060032422994544504,2.0510705016072954,,
2.520119000000001,-39.833160477327596,68.06793328258084,81.83142965268475,-5.552966346722513,-2.2220167086282703,1.3526881242560467,-2.09938763778959,1.1211843071950611,1.0071103891642412,,
2.5298060000000007,-52.2684985482431,74.18438209425668,73.92984836321455,0.27998280151760296,-2.894051380756817,0.054035116683062864,-1.352441143591545,-0.5143473656796543,0.9867766415269733,,
2.5393040000000013,-77.83400935567838,71.17162094570882,47.7251454562072,-0.9515695359597387,-1.2563825927277397,-0.48912316574117354,-0.2142735317316363,-1.6038269962658578,-0.29754749874532443,,
2.5488890000000026,-89.46813223527025,59.22393761722512,36.95587460187507,-2.9891469055627864,0.8827597924629164,-4.385821406310205,0.8941939548651581,-2.4144781540062694,-0.028940967485943065,,
2.558418000000003,-97.55900692734733,45.29984260055591,36.56522826261492,3.08255408364341,-0.4554338082278609,-4.050307525660608,0.8818269252661446,-2.819711326079914,1.209867242637824,,
2.567836,-101.26703588623847,35.12164426159706,39.9872070259878,2.928737639276537,1.0257222678917133,-2.637196241453501,0.8295034344487828,-1.9452251457946963,1.1476170861589547,,
2.5774350000000013,-103.87578913262274,31.790875507973908,45.1554226086491,-0.006014101364075051,2.6368880241571526,-3.4639738189662155,0.1388103684291605,-0.7798236286954708,1.3694546073870295,,
2.586945,-110.7674758048134,35.76139131678884,49.398519383558664,-1.6075532829728942,2.1866904468776887,-3.6398734725498674,-1.3557210608706998,-0.2873787117526328,1.7582289557107904,,
2.5962609999999984,-122.92658028767043,45.01203090335378,48.70898091936722,-5.008782546547025,0.2004497639977468,-5.345242539325091,-2.6054407280263634,-0.149201544991683,1.7319777440616497,,
2.605789999999999,-145.28942489449904,54.511859351537545,38.51160020674799,-6.32871741560266,-3.667443735387386,-6.191002146602028,-3.3884959425219225,-0.5578288208435328,1.8369251994209896,,
2.6152900000000017,-178.16358223381417,56.701404576450805,18.83506608707,-4.9250144837395,-6.262373441681574,-5.005836215617997,-3.4668137516878197,-1.3036124585512627,2.0650674070039683,,
2.6248080000000016,155.20603942973207,49.98957097527247,5.273796466895601,-3.286210420529807,-7.580211663829475,-3.0822276623048412,-2.880492385700443,-1.85004995584056,2.2564500626138795,,
2.6344309999999993,139.89459557166273,41.052054551663076,7.827947454842803,-1.4476064288080481,-7.466843196231838,-0.7764963336480988,-1.9350563948626824,-2.00057619604105,2.7100944791635486,,
2.6439400000000006,129.94783381928764,35.44781752564906,17.70651051604684,0.4467668050083192,-6.641167430140529,-0.13068908278630342,-1.2832029870385808,-1.4301483674057704,3.198664832223414,,
2.653455000000001,121.53766260511019,34.71541354611021,30.200660281681962,2.8040373948821764,-5.078872924961644,-0.3995811812691326,-1.2078024936374625,-0.6861072645643643,3.4570731789629936,,
2.662772000000004,112.34555579452162,38.00469457646953,41.71798878158541,4.59839582209206,-2.483298399243231,-0.5404431748831593,-1.5967774359892906,-0.33286205997482393,3.3828720431696753,,
2.6722820000000027,99.28491346471267,43.57547886777037,48.349562001330966,5.276632620093445,0.13219543972916561,-0.5503384013672383,-2.1962948280798624,-0.6147884012234031,3.020635663360852,,
2.6817940000000036,79.2443826100191,48.5025310728676,47.025315800977516,6.936647796283801,1.0794878222707467,-0.15162194554632805,-2.601632664176048,-1.403587147255546,2.6127317926932303,,
2.691499999999998,52.26983857364246,48.98729096229016,39.08914486408914,8.185375257736743,2.022646414449169,2.7945654857190543,-2.66032332082152,-2.359002318889937,2.4713043291562586,,
2.7011790000000033,25.306249932478288,44.03224974302948,32.05750889431986,5.589892037325938,3.0407976111747064,4.897844708679721,-2.446873917697746,-2.9530864727692734,2.5118655118221374,,
2.7106899999999996,2.925619714218156,37.89057208374611,31.011372177341485,2.2826399205219405,3.0358077658890616,6.491524775625367,-2.242765902348686,-2.812576606384912,2.722654038121936,,
2.720216999999998,-15.45823956106236,33.49227048097565,34.104255153016354,-1.4094454431717702,3.6352909796497364,7.10401936430436,-2.042093001050937,-2.354710272934553,2.758074362716862,,
2.7297119999999993,-31.82467114857066,31.932544253569283,38.74387904359576,-3.103203169876964,3.459117730843412,4.460307999565792,-2.024633748030396,-1.894592911514464,2.693057528339033,,
2.7392249999999976,-46.70622899008184,34.882820160702565,42.08871144686616,-2.5532363793635717,1.9193238686934913,1.2923490831701188,-2.263172290632879,-1.1695768422300485,2.307520748942815,,
2.748358000000003,-59.786256283300695,41.03754474674774,42.45069456758995,-2.4074912352579543,0.9773905798291657,-0.14116427694632924,-2.340378183016603,-0.4825802976724444,1.6847690600724003,,
2.7578880000000012,-72.41082914567008,47.45768562498718,38.020944568340695,-1.7159156326095237,0.7137925815509214,-1.4426158607179982,-2.1979426739934604,-0.15629381713229182,1.2559016795481797,,
2.767476000000002,-85.6022099824319,52.48494479625972,31.039523880075045,-0.5601785716100065,0.10452239367767624,-2.212440822031395,-1.953967235613178,-0.1089968554250013,0.9469718635129766,,
2.7771690000000007,-98.4379423355252,55.0458369023667,23.243230190117867,-0.2739014974118547,0.028092625472901627,-2.804049741973358,-1.5715280715895859,-0.22153874593709108,0.7299739291142086,,
2.7866890000000026,-109.75255165577184,55.000631108562395,18.586570019444018,-0.7303865445940703,0.17363205347767222,-3.368420432846536,-1.1955423477069507,-0.46834065877927644,0.9264083659236008,,
2.7961870000000033,-119.3752036680784,53.29349522602078,17.767014473252463,-0.8209263508474027,0.003715974436129178,-3.247415773872546,-0.952957136718382,-0.6708945572961553,1.3996383662733116,,
2.8057060000000007,-127.3501812618497,51.32989096813153,20.28579789422312,-1.7372967587087127,0.16695322288023462,-3.3953557611932017,-0.7836968347426286,-0.6826285383878803,1.769848530209147,,
2.8152180000000016,-135.63698022391964,50.16661338818472,24.385188170332228,-3.139205999219516,-0.2006256637394075,-3.6625240871398126,-0.873463766046977,-0.6053634225697889,2.107222653974834,,
2.8247229999999988,-146.15928232515415,50.51498329926346,28.397779117755437,-4.324518897723986,-1.022208818038302,-4.334955024527086,-1.2288782568531418,-0.5246216261420813,2.4258876692925075,,
2.834236000000004,-160.27439543258538,52.26521770154664,30.3997018552765,-5.105505340469759,-2.89024850289996,-5.232879314216735,-1.7037251399869082,-0.5494444979885116,2.6084537927421962,,
2.843747999999998,-178.77391310889422,54.12683163430744,29.104611621086477,-4.395315891400805,-5.435079073500368,-5.656178601712969,-2.1070004166515424,-0.7665716317531254,2.705169861785353,,
2.8531789999999972,159.8101853270613,54.14733948455717,24.861439052025435,-2.351400623838721,-6.93707595403836,-4.7630393786189416,-2.2458137404684906,-1.106372126898078,2.7799639772457265,,
2.862684999999999,139.92964543633985,51.77227557276028,22.19463398980125,-0.1566903164909364,-7.165246774704135,-2.943216249423382,-2.019531492920762,-1.3653266834500712,2.7632899218423517,,
2.8721919999999983,123.63279597674537,48.469139452418425,23.081057596865396,1.5125184103352456,-5.950279145257815,-1.054011995543055,-1.6904649629890185,-1.3946527372449933,2.7847529431429345,,
2.881709999999998,110.57264823780427,45.84051824467014,26.801440075195863,2.0739298435309514,-3.8359181030417884,-0.04531137470442645,-1.4051425197540433,-1.2120321822260725,2.773486804278831,,
2.891216,99.85798006697631,44.59888697138639,31.631189535591375,2.703473193945447,-2.5348191747917324,0.23811832062038302,-1.210526484847313,-0.9438918611387596,2.6043209116608823,,
2.9007410000000036,88.93791123930983,44.66932014649548,35.78243000855442,3.506871584222341,-1.1576039160289915,0.25647179102240386,-1.3135431661693941,-0.8437092075369023,2.473653304852457,,
2.9102469999999983,75.95537599465719,45.37967981343333,38.03323912271526,4.573437570403811,-0.2569368936844133,0.41893973791933226,-1.5641186494966635,-0.9844077952465575,2.377445683597123,,
2.9197360000000003,59.651195789781454,45.81679816022139,37.909293939456894,7.063238886049158,0.39912772734878466,2.5037167161314056,-1.8611066760809696,-1.3341373545754396,2.369647434267568,,
2.929431000000001,38.69101147118617,45.1717234578313,36.587163548981685,6.45268169901979,2.600415314304205,4.744471122540215,-2.25287048597383,-1.8981945789640473,2.6050470195304305,,
2.9387779999999992,16.0508022266214,43.48602452853021,35.615432178528074,4.026398488355421,3.307881174200999,5.665381120027527,-2.3916698641006313,-2.2135939909974858,2.7009071359993664,,
2.9482909999999976,-3.6820337083920522,41.56364985109914,35.36408381542589,1.3990831778222803,3.63204887294976,6.610981058180768,-2.119925407291558,-2.0298385219408623,2.3789795297944383,,
2.9579939999999993,-20.101438656447527,39.733267785046934,35.40819163584747,-1.2309802069138265,3.1774991865421294,5.185487658203221,-1.805066463343099,-1.755575262801214,2.0538031346331316,,
2.9769989999999993,-45.75354069428971,41.08517872055708,34.76439444575227,-1.4818260984550278,0.939426363912979,1.1331292848939285,-1.674530099295483,-0.7243786373997958,1.409768896624045,,
2.9865100000000027,-55.87793499217229,44.796288402056966,33.18744040109435,-1.3042487916239596,0.5301020550739789,0.0553496789640604,-1.6313139519800675,-0.21858731882178226,1.0657687337120783,,
2.9958519999999993,-65.26530275543723,49.26553355427081,29.648971242200744,-0.6336791314693857,0.36119588735036134,-1.0106203398246911,-1.544029885394468,0.10498165976341106,0.8752630454919725,,
3.005445999999999,-74.67607683433819,53.935101962829975,24.39780607708898,-0.16477624158391138,0.22757845388480133,-1.925547352908863,-1.449743344878321,0.30879299271713484,0.620667889613876,,
3.0149410000000003,-85.06420327674141,57.8735372172904,17.215961308918274,-0.36582241435463525,0.22085714551372984,-2.5552932730013507,-1.352266375319247,0.32839324474443166,0.45327945651965346,,
3.0244440000000026,-96.61079676828793,60.07595952555833,9.853563849292206,-0.6044704266982809,0.3394200518837807,-3.1823918235207773,-1.245404980721993,0.1539794108585518,0.6410842274473162,,
3.033959000000003,-109.14791242719915,60.20118309227854,4.212767509745537,-0.8015562999453553,0.23524486519591262,-3.447923910750393,-1.2282526282095934,-0.12834457668249802,1.0488985205637629,,
3.0434729999999988,-121.24222067123708,58.630766844695664,1.3068340543209052,-1.6920308654271727,0.2776563744258249,-3.552607794130029,-1.2011056477589173,-0.37036680039218906,1.5041184989024783,,
3.052995000000003,-132.98731204206766,56.438867744760486,2.2100835323883334,-3.2599751427996977,0.24517414985934757,-4.237387567979052,-1.2355645304013871,-0.47174184163279437,2.1657175007493965,,
3.062502000000002,-146.15635837925743,54.53552137354335,5.864269210018995,-4.440284754828056,-0.5469976650151832,-4.9143127745943485,-1.4537222343032217,-0.47675165188227375,2.9039079754504473,,
3.072006000000002,-160.75529432931313,53.449785620429736,10.776495029696314,-5.660996637009329,-2.186211950013776,-5.695339708537206,-1.6630916464310226,-0.45291242470034315,3.3459358514273685,,
3.0815309999999982,-176.8568755300833,53.265544833586056,15.185859288730716,-5.537730616602438,-5.04432955287804,-5.554869451512657,-1.8675378735266013,-0.4456718046653744,3.595680360615166,,
3.090958999999998,165.3609190017095,53.68783068898619,18.927651947827837,-3.6173509982042953,-6.736461366246346,-3.9416921674895438,-2.0560971865226767,-0.5161200996780452,3.750256059863642,,
3.100470999999999,147.07871887099338,54.22044141786258,21.4874502741773,-1.5979505752042897,-7.288795600623049,-2.460005589303104,-2.0672140545874145,-0.6193499218647873,3.622348302961186,,
3.109794000000001,128.6290657871264,54.11657526091651,22.14779852085571,0.7644836385615255,-7.145582870580468,-1.2548625935957607,-2.017704462975577,-0.7854175973021097,3.4405169700235705,,
3.1193039999999996,110.08443156925247,52.88152678862108,22.57049078463263,2.807874949775222,-5.436166285839995,-0.5008569450373901,-1.9707287163165779,-1.034993607868582,3.3609044655396136,,
3.1289820000000006,92.58586857017627,50.47734564488038,23.9572328615023,4.67829110515219,-4.012982075657419,0.11802088881187711,-1.82748892964111,-1.2770491898870067,3.2350520964216645,,
3.1384960000000035,75.4954755711232,47.535231956211796,26.92000697041605,6.734187272792379,-2.495726310201671,1.4422099145702456,-1.7873589974148645,-1.488994474285925,3.2263440993639434,,
3.1481940000000037,57.49862756212593,45.11228102920272,30.90633782450816,8.195046867745969,0.20875101240050173,3.7695214360435196,-1.9493539164431624,-1.6321668219585859,3.363049058747535,,
3.157713000000001,38.12237404243691,44.228039742960185,34.74463558926362,6.26470631145298,3.8106358477063202,5.569662607719818,-2.2200475179496064,-1.6587536608483646,3.402844371890403,,
3.1672220000000024,17.110537726543047,44.734543994807474,36.640608051353645,3.3534732970847303,4.74489507672431,6.080949650408995,-2.4823550684557616,-1.6940605691180903,3.171322215408414,,
3.176726000000002,-5.123214622827316,45.00879131189812,35.73647991841251,1.0392142993970157,5.091522316763153,6.05960022649315,-2.5567515337529354,-1.8426800501626102,2.8060459848469037,,
3.186259999999997,-26.01967138573753,44.453391838155774,32.717257004539775,-1.6935818030443466,4.705720863765468,4.019934066878501,-2.3782604905798865,-1.7741009187857129,2.284590052372021,,
3.1957570000000004,-44.79948010306391,43.24674087840973,28.945100806887037,-2.050020719676424,1.2547435773135496,1.647621956717029,-2.1886659761218215,-1.6032625097200974,1.8165313507647074,,
3.2052690000000013,-58.32002266591138,41.72742920930753,26.176927171600497,-1.612196557951814,0.4071356714506748,0.8094698924497674,-1.615959959920899,-1.1964384251280882,1.2762361909531093,,
3.214593999999998,-68.89166107431669,41.24985640356773,23.82538815755293,-1.2238739686664823,0.9725787963409013,-0.26883001977881965,-1.3847932314830307,-0.7569885397315066,0.9844249656660043,,
3.224094000000001,-79.20397252897358,42.55760340201454,20.700924903233066,-0.15455961610520128,-0.020892883588036964,-0.9458026296033513,-1.5085774296272692,-0.3371827046536852,0.8448966309894079,,
3.233696000000002,-88.40954163767982,45.51643100193022,16.965146746117487,-0.12173894883253727,0.38390564934632493,-1.608317247182074,-1.4305262435129142,0.13605203510160385,0.6324220757462672,,
3.2432080000000028,-97.92269782430095,49.484898136598574,12.526482972521439,-0.4626744293862439,0.7577196758268163,-2.6695986116354473,-1.430209072536077,0.44454819815285485,0.62114143816299,,
3.252724999999998,-109.59524955916923,53.49474322612449,7.288156290634189,-0.5016687310025356,0.4714741331422078,-3.064318109405371,-1.5564141460288403,0.5378226822341828,0.7840339514225895,,
3.2622280000000003,-123.19069009308281,56.502496183089555,0.7991865135412783,-1.4697356748871335,0.7318045409687307,-3.6228387067623586,-1.5842177218329778,0.4890351637645173,0.9342194154839953,,
3.2717390000000037,-138.60343617478242,57.79671242782322,-5.440675910294272,-2.808459478215285,0.5944344630868661,-4.26668964714156,-1.6462652221837317,0.32821340719529757,1.3457751389901769,,
3.281247999999998,-154.7271107721105,57.53862691844027,-9.206923496413042,-3.890481633132905,-0.21093298806941044,-4.74131183735225,-1.7045825917962798,0.17479264378931747,1.9745424056670637,,
3.290758000000004,-170.49734826944768,56.567229860864686,-9.365659248516051,-5.3021238555026216,-1.6741101505050464,-5.572102870740657,-1.7149758591780901,0.09468596861484442,2.616272324322035,,
3.3002850000000024,173.97463026480105,55.83924506225505,-7.1525194450452165,-5.986862872274272,-4.047081707298167,-5.675181399405959,-1.7249538215983486,0.13175357976502794,3.2349478333797697,,
3.3095250000000007,158.83288469620203,56.04893241949493,-2.564863461943018,-5.02051562029333,-6.039808747592974,-4.357160081844913,-1.6849960508944342,0.21527104438100092,3.6617380710084952,,
3.319029999999998,144.597242459656,57.33910873072959,3.0692829803010793,-3.2737950718518927,-6.6198567252458655,-2.3227859187644753,-1.5664829513308935,0.2803056295403845,3.757708125995416,,
3.3285649999999976,130.96146465126114,59.433596802854,8.095822562728996,-1.5886224330146181,-6.604896077562464,-0.7054512898769845,-1.467739145008357,0.3039310959345172,3.5760194423569684,,
3.3380629999999982,116.33033097368478,61.381387212012044,11.175301174646338,0.11760789137122803,-5.313241986029416,-0.31871670956423687,-1.4972890153838336,0.1652568404996705,3.401758226799109,,
3.3477529999999973,101.53571228471775,61.67952286505804,12.802729395103468,1.5942345950822763,-4.140518437094586,-0.886455457017894,-1.4039541215912146,-0.21670705074807992,3.131075143340436,,
3.357263000000003,87.51086739550762,59.58941710564583,14.54606684887717,3.4553507383554454,-2.9943818676386953,-1.2307681353145954,-1.2521158572241697,-0.7206111122106137,2.917241207610034,,
3.3667700000000025,73.99505516540769,55.41504844390684,17.05127081805977,5.09134338457585,-1.7846611272601505,-1.2127508207823772,-1.1833752543467193,-1.1944118735365528,2.8306636723337744,,
3.3762809999999988,61.00723347964875,50.39627875726541,20.935603854968722,7.537460182329074,-1.160206802471109,0.6462193165978356,-1.1643746192772682,-1.460566080119178,2.8479339701291604,,
3.3859840000000005,45.7143764719425,46.27413102467302,25.144281436816208,7.853923866828364,1.1108952520375384,4.0905292848797234,-1.5554802038328122,-1.5600065813019663,3.103011035245676,,
3.395493000000002,26.04250675217727,43.97417707035554,27.496837921482708,5.054567083286897,3.3173711124519913,5.96866022247915,-2.287208583359718,-1.652407286146718,3.2240755190874477,,
3.404992,5.151627797085826,43.25165045470919,27.172127629253183,2.2366548654327936,3.1617927205976657,6.494704246857849,-2.6167259550823814,-1.5300016963820868,2.780672459122939,,
3.414515999999999,-11.772746851801973,42.058127399339654,26.01517420208545,-0.46510572268376926,4.798841813545172,6.353627040851413,-2.112685795566535,-1.338221609097151,2.041268453626891,,
3.424024000000003,-29.434087533248412,41.49444195753905,22.95263120153948,-2.0508961190036166,2.172927046544645,2.6418506799326216,-2.3418716837200173,-1.2028172925049567,1.741721679402515,,
3.4335260000000005,-42.523925265401715,42.10936482550902,19.54377816785854,-1.9607322778810292,-0.6762485436761942,1.5428607058534591,-1.854305475210267,-0.5992974156965747,1.0962310863926157,,
3.443037000000004,-50.384039099575574,43.708377168126574,16.466036597796084,-1.4140945229035524,1.606755022399949,0.6602507211348926,-1.1837853354509844,-0.057089114850709555,0.51920796689729,,
3.4523730000000015,-59.33260916621876,46.16739301663458,12.176535922413885,-0.21780825595465975,0.48968194396846415,-0.9039907825777747,-1.3379479627017121,0.15937549468128215,0.4911680075468852,,
3.4619029999999995,-67.1009388605148,49.301246289452145,7.222100601531736,0.3044600385705092,-0.9003395575305788,-1.4545291411218126,-1.12351296055425,0.4369826843746628,0.2311974786147513,,
3.471465000000002,-72.09333622476647,52.41217251893027,3.267890472116999,0.4246361245345428,0.3958182810443167,-2.4622350120387275,-0.6707823443843756,0.5580231296320174,0.10400084650197021,,
3.4809839999999994,-78.0640899696774,55.42028740431765,-0.4170929422290483,0.5368809931621585,-0.5224604977349335,-2.7130484304039038,-0.7043563820036908,0.5798576359095211,0.3361953968904048,,
3.4905019999999993,-84.67530324217994,58.03808309642384,-4.503454991687931,-0.022631650540107275,-0.4918132426590677,-2.3071955111647813,-0.6884561741589651,0.5502250529769418,0.39532956211694675,,
3.5000050000000016,-92.02726065781813,59.75899816209325,-8.067507645713858,-0.8470388920787262,-0.04361174693807367,-2.1569808618271353,-0.7038808927161593,0.421726579595741,0.647223154330054,,
3.5095129999999983,-101.86477350024293,60.33475762859631,-11.604975469871722,-1.4491530806873816,0.27992713766884986,-2.1913474407088214,-0.9349815412718634,0.2796228733574874,1.0931865627484825,,
3.5190260000000038,-115.09583008680272,59.654233888047415,-15.504225987995492,-1.887810177080462,0.5784883563299823,-2.5795924350298276,-1.3045115187272964,0.18030863421819215,1.610752348061189,,
3.5285420000000016,-130.20396987266142,58.13215038556231,-17.55657185830963,-2.801781486443099,1.1950324254324198,-3.7538455761005247,-1.569713870895803,0.15306708977336878,2.1803489956477047,,
3.5380389999999977,-146.65301520338025,56.40818443485724,-17.927446875460387,-4.690520279059462,1.3400330082859753,-5.911258410976889,-1.7857751609382027,0.22912818363191736,2.832777309580145,,
3.5475569999999976,-164.40671087216026,54.50414847391931,-16.262921960876007,-5.60691920472831,-0.359985131070907,-6.715492672393056,-2.025782143779903,0.2507286103880089,3.411067323305246,,
3.557071999999998,178.88567230634894,52.51406190608211,-12.428091210193633,-5.549786696447725,-2.780744433791748,-5.29939718617065,-2.018277322480524,0.13223319899572197,3.6030333244778223,,
3.566502,163.53182987932342,51.247396130176234,-6.607066442024123,-5.131611792331118,-4.833723440848227,-3.068580136483281,-1.9108100897047036,0.08872385006039377,3.7221297225369607,,
3.5760039999999975,148.54690331242048,51.457989517750235,-0.45093678408609783,-3.477895470008795,-5.0968657275835465,-0.7138071469047816,-1.8683489780085631,0.181929623150672,3.717621577125097,,
3.5855280000000036,132.95572893829572,52.60646379909646,3.956347897437321,-1.8502877922642678,-5.863926565793321,-0.29398381369359905,-1.9295353270188096,0.19500953398174045,3.4964850863927075,,
3.595041000000002,114.74260657283094,52.86255225177091,6.884770606965076,1.016844074615282,-6.294593004355155,-0.39616441443497696,-2.2089377321388253,-0.14923071344750768,3.4766341757339334,,
3.6045560000000023,94.03372451480922,50.8979670859532,7.444559047305324,4.096273930724235,-6.352429204470918,0.2613058046737671,-2.50139486004959,-0.6855425419156631,3.4972083366022986,,
3.614058,72.85023904987267,46.69115645927475,8.239999631348608,7.670059050988852,-5.007739725401845,2.5268025090497996,-2.661146334339448,-1.2036460129173123,3.353654429282468,,
3.6237490000000037,53.393497162161616,42.21535304538161,11.801313233568212,9.174595909271844,-0.502938742340272,4.734043282959826,-2.5888391345580346,-1.366095953281589,3.395399616230103,,
3.6332689999999985,35.45909403218553,40.622279942721974,17.67409515874508,6.780543114472342,2.623830025461556,6.114540716346843,-2.5296816125352657,-0.9985801460268191,3.5412986539741818,,
3.6427729999999983,16.80131179932898,41.72712776782843,22.38491535138455,3.6466350763487743,4.062815684941716,6.755685258524835,-2.719657655925843,-0.7639951559278635,3.412419177269753,,
3.6522819999999996,-3.0557350355816864,44.2821509131937,24.788080245878312,0.9323107496377236,6.742484290456603,5.684257884824532,-2.867530105829743,-0.6971440326356999,3.2820768590741407,,
3.661805000000001,-25.76400002097179,49.07258401531158,21.823934274747973,-1.284393811976824,3.91787688718821,1.62562733983834,-3.231495442701032,-0.35098953713126163,2.879938997223908,,
3.6713030000000018,-46.60507891600538,52.39833827306286,15.585899485677153,-1.770560557600382,2.258487100318387,0.9712357470059252,-2.6983918474053947,-0.22003988649767528,2.0839919409482155,,
3.6806330000000003,-65.06852535225846,52.74380426370421,9.337797237608548,-1.429198243172698,3.6667487929876974,-1.399093372180995,-2.1937526404721415,-0.4213497801630362,1.7221687620408959,,
3.6902260000000027,-84.36965913754204,51.773012188014384,3.243057588388167,-0.715552308647463,1.3797274114264662,-2.5088501385630395,-2.3127859920012583,-0.4566901689409884,1.826365573749024,,
3.699747000000002,-100.08221115801014,50.637457270734735,-0.3096839959967634,-0.21627433828110723,0.6711266004565871,-2.665253858467534,-1.9493811015256326,-0.28041256443937074,1.7312679987321347,,
3.709249,-112.4370866481361,50.65533703512688,-0.7142686234976792,-1.162276587557863,1.9144190164705248,-4.306162756125287,-1.5548035735011287,0.01717329126183615,1.8392474514624904,,
3.718760000000003,-126.47870251643191,51.80218333108595,-1.1336918424120797,-1.6020746338308072,1.3960990149436847,-4.670622694820109,-1.7427895999258909,0.2606572829075739,2.1328169488697335,,
3.728272000000004,-142.0583912529446,53.607856545587325,-2.9131859273601304,-3.035997939562189,1.2354457733713078,-4.57598595239037,-1.8617222260627793,0.434066174247017,2.171290773567517,,
3.7377790000000033,-158.79756616927224,55.82461351881391,-5.489805179680247,-5.644081613366689,0.22880243633509695,-5.109640408212545,-1.8840136433377588,0.592832901907631,2.2769254500862393,,
3.7472180000000037,-178.04764566474833,57.071334982013184,-8.756899237812215,-6.472843552954888,-1.6313142664887572,-4.742820283229415,-2.0696820560366604,0.5240903096233549,2.620252496983681,,
3.756703999999999,163.07061492223517,56.576566976533265,-11.242801735735148,-6.120405026739298,-3.2356405311840035,-3.4634318645139,-2.044625391191807,0.2787513324495086,2.726228698283853,,
3.7662359999999993,146.82602002731392,55.3959186134351,-11.41076686145335,-5.3964988718145985,-5.148198254402764,-2.3462428452765525,-1.8251820137178725,0.14308781186501873,2.714527468621262,,
3.7757450000000006,133.03567158554515,54.193070446518554,-8.833378831940768,-3.0260418854502604,-4.9938523780722575,-1.3829846814012483,-1.608620574967695,0.05938089533891551,2.8264382899344076,,
3.7852510000000024,122.78682505179879,53.085726069130416,-3.886979213515696,-1.2309710274163161,-3.545542232460397,-0.9916129532038029,-1.2361048476096352,-0.0715055631498079,2.6937007677023392,,
3.7947640000000007,115.35712530545368,52.298350412645064,1.7702533158785076,-0.0014394158862101152,-3.104986439726379,-1.0299214137372776,-0.9082124952271302,-0.12989687637758637,2.3498416011031096,,
3.804275000000004,108.11139210695335,51.79640301196027,6.512971433275885,1.1647971555266339,-1.9559033616463324,-1.4825317197457661,-0.8875446289859036,-0.15563297314817703,2.1123011806642027,,
3.8137960000000035,100.8483524251816,51.09618496989767,10.036767033564962,1.7864799422216182,-1.1000133243730514,-1.9800470226039713,-0.8821952967795297,-0.26226067288073474,1.8446842845266382,,
3.8232970000000037,93.25019693224668,49.85238958251438,12.311556751953708,2.6736835167545916,-1.4503141674355537,-1.657118264726237,-0.9067714705535901,-0.4275705452355852,1.6011892787874291,,
3.8328109999999995,83.15369729845692,47.9972570287912,12.792007977078999,3.501238940618749,-2.2010456797882836,-0.4804738815459367,-1.2207200155642493,-0.6481079840642517,1.596964824927727,,
3.8423349999999985,69.6941661159164,45.580973902720515,12.053680877199948,4.466663956982368,-3.5082573658898686,1.6022685741335303,-1.7009291128978064,-0.8694509314298292,1.7692415132560035,,
3.8520249999999976,53.88012568756287,43.004188491258915,11.282924912236425,5.22121931782238,-3.657622634965649,4.45540548417844,-2.1163304557044333,-0.9673131717879694,1.9987417919247907,,
3.861528,37.15770039165061,41.09935754637296,11.3267976407188,4.0798806598992705,-2.14766816530423,6.254733257157272,-2.3626679721223796,-0.8698243891157724,2.1883722293910193,,
3.8710400000000007,21.501739602884907,40.16410879152854,11.52894889414213,2.588223402518729,-0.48402804936891614,6.536509833773113,-2.292962918702272,-0.6652771985623531,2.0382975374757435,,
3.880551000000004,7.469276472940143,40.476738363996304,11.470864128369023,1.410415107264733,1.1060826610924768,5.0302335792226485,-2.1087255895015615,-0.3758817576516061,1.797137545307032,,
3.8900580000000033,-5.179170694473426,42.38366075032384,11.006031191022965,0.5413712674333433,1.260786678036888,2.816728254383407,-1.9321825412105245,-0.005593515171810627,1.6026862613456798,,
3.8995730000000037,-15.750301864168492,45.14839140728773,10.053397411289069,0.010413861399647763,1.0373620333199949,1.2698720382338484,-1.5977912273612687,0.2551822841115625,1.3118751954872936,,
3.9090770000000035,-24.582760344399766,47.85859324205405,9.066976883043141,0.10761804750658738,1.1517569983067921,0.16072733561889502,-1.284006306113859,0.3205255714182669,1.0807444272444457,,
3.9184059999999974,-32.65326742827406,50.62040500130289,7.467262090583567,0.028636081897906934,0.695476001097695,-1.0038403834746654,-1.1157106980713878,0.38524850654148257,0.9392858535809167,,
3.927995000000003,-40.17437384840162,53.383007393465505,5.317767551779262,-0.28426555360489625,0.2179634481351264,-1.6075475877596608,-0.9744956541450375,0.43594073771685743,0.7867875028532613,,
3.937528999999998,-47.39841396683022,55.595274105485686,2.9992671146169485,-0.42352480447545154,0.277764393536172,-1.9096110193029276,-0.8613788252025606,0.3702137170085683,0.7332839147851626,,
3.947018,-55.365956087609256,57.13250108729528,0.44910204991253966,-0.47308441799248496,0.33340029875062777,-2.084844588866598,-0.8832177246292674,0.2707532940634497,0.8332578992358133,,
3.9565180000000026,-64.7682988539578,58.0749111255929,-2.5993882593717967,-0.6664719031445332,0.5438804603659976,-2.083932897027978,-0.9946630215111624,0.19801173731360627,0.9946718958728687,,
3.966037,-75.86788840097134,58.331581436236156,-5.488528712661339,-0.9725926646066504,1.1321659290398298,-2.1906411414384674,-1.1530680995854452,0.12531399087466463,1.3186757616405282,,
3.9755480000000034,-88.92173557678964,58.037081164073875,-7.5627747134775145,-1.252555668453255,1.599551092522725,-2.5632945197398582,-1.3629733016214225,0.09178398742545359,1.8153159589534589,,
3.9850720000000024,-103.76533712462863,57.50704776711957,-8.63494784117895,-2.1367759196887266,3.0067609810989917,-3.4889954158016474,-1.57041650706886,0.11437813340955427,2.3005897225362912,,
3.9945790000000017,-120.62336649356041,56.89501623633386,-8.606692289063993,-3.9229100145571603,3.3245320784437453,-4.918031802852396,-1.812253595865011,0.1528851467544734,2.843905639798656,,
4.004100000000001,-139.35106592268332,56.06734759475597,-7.440903675052136,-5.868624182726325,2.14978115273603,-5.991195675645591,-2.0608673802585864,0.1297217054777353,3.359565920233647,,
4.013598999999999,-158.2982234507429,54.69878616195868,-4.934463272840615,-6.693050683555004,-0.3489970559186596,-5.741599044181113,-2.1624704189304094,-0.030369242576124222,3.622097476717543,,
4.023040999999999,-175.78196876020485,52.86958956219186,-1.2155421156663544,-6.425754055611681,-3.1322159993397745,-4.262067279486456,-2.080688380949254,-0.23240253697048882,3.670163500703901,,
4.032539999999997,167.8630494887797,51.499312420989035,4.005431312646485,-5.284788097113956,-5.37782025355773,-2.6339520902514684,-2.001051887007824,-0.3013490013124514,3.7225982784437823,,
4.042056000000002,151.35077907551246,51.084610652043864,9.057923014054325,-2.9495270713668957,-5.746037745513717,-1.4935090063147154,-2.049229264552537,-0.294922629087275,3.6990664445374133,,
4.051569999999998,134.10372974319108,50.80321347870131,13.055612488573276,-0.40767396421344165,-5.957667978404916,-1.375753224405585,-2.1297381562928717,-0.46166727865684576,3.4716610527142664,,
4.061086000000003,114.61635089537526,49.74393693230074,14.616179705990627,2.702418177564064,-6.510442408086112,-0.9940921857045266,-2.376605784366817,-0.7922835048155887,3.301995507235165,,
4.070590000000003,92.68058419845903,47.350291962317584,14.285546791709812,6.13902113349163,-6.45778497854396,0.4734215862388404,-2.7018947907682076,-1.1792246607784835,3.2140548705543126,,
4.0800940000000026,71.09535937318026,44.023646009444136,14.953534654673208,8.523939353441031,-3.5495546100751922,3.3665538031401456,-2.7560626603331455,-1.4062963196260634,3.1507332317632804,,
4.089795000000002,50.75722879472061,41.77345712892483,17.505070738789115,7.373177709880104,-0.14977949860841877,5.821557614066606,-2.74011421077901,-1.274828395260505,3.1977700842152488,,
4.099305999999999,30.3589510681928,41.438776792209495,19.89199536471579,4.62858797781561,1.250324890115403,6.8235517368625365,-2.870717829290232,-1.055669376631668,3.1275134052214852,,
4.108809000000001,9.934397751035045,42.01878080646325,21.55367759007374,2.4225740630828247,4.27014622727866,7.117794505103093,-2.891897721546289,-0.9851596045424644,3.01934282573111,,
4.118320000000004,-11.356921822190813,44.731626590173974,20.866938602717973,-0.8420484492131994,3.337562766324397,3.229505760376138,-3.0757740805510707,-0.6305240849632173,2.7846202878459243,,
4.127839999999999,-28.459047805599038,47.47642781822473,19.105471786493677,-1.8252979641687765,1.5756994044732011,1.735961978500765,-2.407927988698896,-0.3085734949506376,2.111973068544489,,
4.137166000000001,-43.62464297123939,49.383184059703,15.833751078610982,-1.328406574359631,3.1753920713922885,0.17384389745068746,-2.0241791598938583,-0.25172432415184093,1.6159986012970005,,
4.146684999999998,-60.80053239839581,50.9222399109611,10.238860119870026,-0.9693392862903275,1.1013296399141237,-1.29755171525297,-2.201231265850038,-0.20676531047288663,1.5230009018260087,,
4.1562529999999995,-75.89756043505643,51.523789409732316,5.33570012233282,-0.41349821431685907,1.3517906473466978,-2.0576092357131412,-1.8774316358417686,-0.14569920722615218,1.3602991750021634,,
4.165784000000002,-89.40520612722597,51.682232148070966,2.382924075247109,-0.6773221231523772,2.3596242875867506,-3.493960245570585,-1.6639746155841895,-0.087790266231801,1.5096255705293526,,
4.175276000000004,-103.86916788174085,51.86450994828041,0.403244310123928,-0.8676505291171678,2.037154716075415,-4.05113031402819,-1.7778832570782528,-0.010950419100314464,1.8634873867813375,,
4.184801999999998,-117.86598386467462,52.31826517734729,-0.23588497448882764,-2.307379636971053,2.4125561451117647,-4.366822790600331,-1.7080676773123382,0.08732851261023192,2.071429204302414,,
4.194299000000001,-132.20257000847928,53.087668391315596,0.26772753593202053,-4.537678682453397,2.1868896677392775,-4.98276228252417,-1.726281272280975,0.15965297758840413,2.4284155201111757,,
4.213251,-164.06392457525163,54.27453853273573,1.8403535247591327,-6.179483109802821,-0.6999078880037567,-4.008261675019552,-1.8683665728640388,0.0726463883187599,2.827363496292527,,
4.222773000000004,-179.781285900337,54.736255562279865,2.8032564822963,-6.334634321387953,-2.9494066821530174,-3.9716459708225442,-1.822641911486855,0.03400934094810485,2.813504549325234,,
4.232261000000001,164.21378913951898,54.468166472797286,3.779244797372648,-4.293711214484347,-3.8620760045115743,-3.1368238071511625,-1.8467001984847145,-0.14250939286968264,2.865730067810052,,
4.241785,149.78729412498546,53.06303639062813,5.104151219438475,-2.444939379995792,-3.7924649915213284,-2.417248112586164,-1.6803384748099497,-0.3952910952329461,2.6411831727165387,,
4.251291999999999,137.25883013850887,50.94264207118575,6.822119740984399,-0.7722423249816877,-3.6285251191206336,-1.9945723613310657,-1.4937395678700716,-0.5675140823986807,2.34608707277667,,
4.260814000000003,125.82658683226514,48.42738280210836,8.778453356306503,0.7678648119871616,-2.511775977687176,-1.7317966112941867,-1.4019908540077954,-0.6873317103749439,2.1416335918012614,,
4.270313999999999,115.4781474334757,45.66166880340532,10.819998684666668,1.705215081161202,-1.7186150659223272,-1.5440227016214225,-1.3006559966218714,-0.7758279895809812,1.9146514843556761,,
4.279837999999998,104.92803498697104,43.09027375614154,12.33210690972775,2.8223431746724144,-2.715012266172047,-1.1165488867430517,-1.3792465084506256,-0.7997978358266975,1.7532916802187781,,
4.289329000000002,91.76685511788116,41.05880816342392,12.961310965856697,3.980450644159614,-4.080546071730962,0.16423269197442036,-1.8225845719705653,-0.8205988062098939,1.854155305525902,,
4.298831999999997,75.42854377066708,39.73538830243068,12.5772672396052,4.987179134775613,-5.05016007159044,2.3585201648908316,-2.3731961507069497,-0.8085121283828184,2.001986386983063,,
4.308537999999999,56.94497682442813,39.19431710711191,11.462790154815911,5.076556188681569,-3.921800288829812,4.83918108299601,-2.772365939411947,-0.7050553888316973,2.0909039061255403,,
4.318051000000004,37.41772240225665,39.268992028480035,9.642989001872124,3.9770227127378233,-2.041269105867361,6.34565520701968,-2.978409632175926,-0.5488740749135095,2.0727393321645975,,
4.327559000000001,18.821206277546892,39.07744543903439,7.023268167633327,2.0211277714177993,-0.5243628796414779,5.7594929375043895,-2.8471022658505127,-0.46729228048556615,1.7955423270884416,,
4.337082000000002,3.4167522289925074,38.46208556405399,4.637533267997665,0.5515934987493041,0.5298279571879256,3.8779796519030367,-2.37595248365118,-0.377853078595892,1.4328519538976372,,
4.3465869999999995,-8.967171305576485,38.57144504894323,3.3417621384000284,0.062407433891325324,0.9118171464899629,2.3643680762544586,-1.9326768717420293,-0.12463287657399387,1.2785410493537819,,
4.356102,-18.74650522821181,40.09443942346907,3.2681172490275863,-0.25311894993242384,0.5546805308219092,0.9658094208926791,-1.5246780930902883,0.20458765205628107,1.2210917341645917,,
4.365614000000001,-25.584566896409967,42.9199900783732,4.354775616362211,-0.11440447531984799,0.4175103024872897,-0.08858060654897944,-1.0550535294368644,0.48400318543316956,1.1204030592695444,,
4.374935999999998,-29.988612746669325,46.84333693626243,6.274142727472538,-0.05947521586599874,0.3146900943605591,-1.0325550467891909,-0.6885637849775081,0.7125983185935865,1.0023067559410006,,
4.384525000000004,-32.60132276711132,51.32157950996858,8.592235184568159,-0.34192066682531724,0.032072751375398466,-1.7018892468196538,-0.4488298814754897,0.833675937735717,0.8551164186653802,,
4.394035000000002,-33.889500694784715,55.36888312877176,10.713934916456036,-0.6680611455389245,-0.022015701811593756,-1.9410273420536153,-0.27843677415589,0.7630414101290461,0.6842872962173734,,
4.403562999999998,-35.340855922561275,58.37495522123427,12.187246322446509,-0.8215000896795264,0.08601699022498104,-1.9813359770535723,-0.26654384832841693,0.5483094353566386,0.5733215728208998,,
4.413049000000001,-38.682389388230824,60.41634670712439,11.846106231698144,-1.0173556347846706,-0.17273004164308733,-1.874382165767515,-0.40993343295631385,0.3187507066998285,0.5236182614051422,,
4.422573999999997,-44.0684592276777,61.56068603060727,9.608220516694194,-1.0910458670602619,-0.2185279364679721,-1.7694095543368509,-0.5479244473170257,0.11757310689634944,0.4992590248226387,,
4.432099000000001,-51.40445017643398,62.032239534687776,6.304134329204664,-0.897930498458245,0.06639603892144645,-1.8526657337450625,-0.6912846105481366,-0.012835276982440328,0.6233709563615683,,
4.4415910000000025,-60.57181290418786,62.27860632721094,2.814429520993385,-0.6230269066906693,0.36950925321324246,-2.0853941952847252,-0.8482520221883909,-0.02892237061794085,0.9099568286257975,,
4.451107,-70.89662662799675,62.64421235351766,-0.011782032325313647,-0.5444117221738755,1.0285261591819892,-2.458411109900316,-0.9460090605491999,0.04113297129667463,1.265632029621948,,
4.460607000000003,-82.41895049954577,63.24344970462068,-1.7571364755518741,-0.9092833691402012,2.190921254575648,-2.9226140335052055,-1.0351029105225056,0.12879266202071124,1.7040350818577032,,
4.470123000000001,-95.81642799655214,63.83324351623794,-2.7612788658762186,-1.7262342954054062,2.7399081093230793,-3.3684059846954764,-1.1764216549952073,0.15989637870251744,2.199677021597012,,
4.479644,-111.08408179308589,63.74343316165995,-3.8348689660995596,-2.7465487342129484,2.5534657862054475,-3.306954212758908,-1.3348256961491602,0.05804154276800011,2.5272569942922454,,
4.489074000000002,-126.58452525211325,62.106806401452175,-4.488542963420228,-4.044767235410244,1.6106495711201507,-2.8193260003225706,-1.4184716050746804,-0.2209236216394677,2.632482453897816,,
4.498589000000003,-140.54543753717383,58.70783079618928,-2.9049110975257335,-4.01631058414199,-0.22025408514016603,-1.459651204920871,-1.4090814191471608,-0.5825089823684186,2.7476074980926843,,
4.508091999999998,-151.30871094304487,54.426662844748165,1.5569500105960064,-2.697365627280894,-1.4205863105598335,0.18802856431701206,-1.186958560320526,-0.8349385036011819,2.6771815096885687,,
4.517589999999998,-159.74526984114297,50.12411269940122,7.202786711540557,-1.8870436395762582,-1.9383296275503128,0.506474148767988,-0.9563701367977699,-0.928151713813924,2.4574143683091076,,
4.527304000000001,-169.22550783291828,46.279050924449834,12.216506003974333,-0.5290263711033153,-1.941055018895962,0.5786830555300916,-1.1116672902987608,-0.9600456869398822,2.4178895728699232,,
4.536805999999999,178.52601796390147,43.679690739079334,15.297423121368453,0.39960813551699487,-1.6299389544751735,0.10225681077367041,-1.558145665831203,-0.9040255024366388,2.3481437343234197,,
4.546136000000004,162.4982214285775,42.5578191628741,15.457004894881232,0.5069130817681681,-3.2728450619124807,-1.9041902313113048,-2.1969892023918627,-0.8231977638937775,2.2220263331080594,,
4.555636999999997,141.52743703163642,41.613854800990204,13.180460896611015,1.0949739442540696,-7.216322689463743,-3.054605999325987,-2.9705297313042553,-0.9388460076911234,2.354737386539931,,
4.565162999999998,118.43085177913062,39.93797462767595,11.035962061525511,2.987039522232906,-9.201174327882589,-0.6924969297810815,-3.353533255558899,-1.047738735770104,2.584529940750402,,
4.574671000000002,97.27274837999911,38.31655124256634,12.370064489061855,4.067337235370937,-7.9141296833623285,2.6522751265506574,-3.154446979254642,-0.9822650861805934,2.875096741111633,,
4.584366000000003,77.8128913599942,38.823096769468386,15.895858465462448,4.21262624488002,-5.736027965664638,5.939600148842634,-2.987207483975318,-0.637727199112375,3.175553564925189,,
4.593870000000003,57.84467279601471,41.0822935036442,18.318317856093692,3.961831399848326,-2.2775924559404945,6.713233635320206,-3.068644224805266,-0.46331282484147424,3.1341747242740596,,
4.603369999999998,38.05828878672132,44.60361744411438,20.224692303823602,3.7363208638103385,0.6360836506144043,5.032906305882693,-2.9770694452221096,-0.29670377490302424,3.135258147116226,,
4.612900000000003,19.10523692831079,49.94656199401361,21.433126073890048,2.780927932723938,2.8354681426578052,2.618190345130379,-2.784449925788434,0.07381816935917881,3.0828255329197574,,
4.622225,-0.5758223046104309,54.502744478190266,20.33723744964626,1.9401542026831036,3.7903432033128484,0.3205447884842645,-2.573524129729823,-0.02006629278792177,2.9525906864359075,,
4.631736000000004,-21.244266046541515,57.80011551513971,17.347680662870587,2.0308827726744414,5.133409254542856,-1.738677733618448,-2.3840733724482077,-0.13118330569043835,2.8911942929555616,,
4.6412520000000015,-44.42725849978931,60.54937953741096,12.058995468316432,0.6914804339782799,5.988306369987211,-3.082627604030973,-2.4244584096433157,-0.08192829907655882,2.98662023688167,,
4.6602650000000025,-92.36496957082008,59.87933241582963,4.077198389616917,-4.004634724415148,6.290543834518888,-4.386622703208864,-2.2528116651169956,-0.48155316128954867,3.591386054537874,,
4.669780000000003,-114.35854705400965,57.520307275729,3.8627664694960115,-6.592515920409823,4.610007911007597,-4.8447655345794285,-2.236275267122307,-0.6225052251422913,3.725680770749223,,
4.679301000000002,-133.93515162169837,55.42303667209188,6.575941963747353,-8.348421630891208,1.687905162364977,-4.483249974138027,-2.1082334187954164,-0.6064105900378248,3.8102183636946423,,
4.688806,-151.97899002216144,54.784856245501416,11.139455812968238,-8.240326778756678,-1.1488102395293893,-4.450111408637173,-2.0168629099779465,-0.43384023683865797,3.887118166249022,,
4.6983200000000025,-171.21404123273334,54.698964403290354,14.232309575013636,-6.804659613380152,-4.147806632755979,-4.544075268122175,-2.162013496266568,-0.4917386158649655,3.7791968017422497,,
4.707822999999998,167.42678101568637,54.17405839289273,14.708498237354164,-4.050921467472538,-5.7286622269069465,-3.7681480676911727,-2.380668813010223,-0.7076507429082252,3.5858753870627504,,
4.717326,145.30310191167695,52.59750558930433,13.050863584387587,-1.183019408794764,-5.94476265912478,-3.181333962717695,-2.488623042270046,-0.9235385380281368,3.218706948748058,,
4.726838000000001,124.8473137749573,49.066991069348916,11.649285096117735,1.7951959135743378,-6.400982282422193,-2.3224091498827244,-2.3775751307259596,-1.2277622635818215,2.8665953713896486,,
4.736341000000003,105.72442738335468,44.28980338876754,12.387285068180962,4.025550269413383,-5.1070063549538585,-0.8051117638333662,-2.374699076419364,-1.4699030758753011,2.893100213909883,,
4.7458719999999985,87.6205790298421,39.95887290543983,14.58942664455645,5.718513506574726,-5.298373153150673,1.0885844798091613,-2.415810702513323,-1.4657958814170176,2.80622220459347,,
4.755555999999999,68.41972587974142,37.51871275403458,17.119426214615775,6.898532757129086,-3.8169541882219296,4.079234963546218,-2.753299901904196,-1.2932978737320993,2.832948852450467,,
4.765070999999999,47.44674523212484,37.51803909478998,18.386189239376453,5.334400962662617,-1.6143679978322387,5.487671445935917,-3.1707604228660644,-1.0287338670885036,2.7333708400430674,,
4.774574000000001,26.69230190779847,38.575132838441064,16.547395464205707,2.781111374251718,0.023586265425945583,5.51550129450794,-3.1785902221570175,-0.7991106143610451,2.1147323250313255,,
4.7840869999999995,7.543883692521029,38.59125886863499,11.900031189299916,0.6793107590819055,1.0243243166009373,4.221376586793412,-2.897004528054727,-0.7509073087797655,1.3877757309628185,,
4.793593000000001,-8.232850079251337,36.967593677777415,6.944158922210538,-1.2612361899222864,0.23141872486512527,1.2035981407268586,-2.4010174254709087,-0.7455214033780941,0.8672314010349387,,
4.803097000000001,-18.851144108238493,34.98500822046273,3.713137860694583,-0.798362380270055,-0.14696196302241565,0.4515527545722884,-1.6687702592241362,-0.5699699618536813,0.535723883138891,,
4.812648000000003,-25.431199988155605,34.48892760848737,2.544056985870433,-0.7125418390796207,-0.4215551806727371,-0.3048697642921448,-1.069256436984724,-0.17184735292474881,0.47372233532172864,,
4.821973,-28.889757741141914,35.98435545888399,3.331875801308779,-0.513195282182238,-0.8083763407969586,-0.8346586463763804,-0.5737648862380611,0.2582171389503924,0.5540197221846233,,
4.8314689999999985,-28.810235809081956,39.31803330290283,6.085452923300835,-0.46624566868304007,-0.3992093818344579,-1.0012206565483346,-0.03526733096700762,0.6548841339499951,0.5430185647886747,,
4.840972000000001,-26.28801415641038,43.637810445989714,10.371735486552296,-0.6196356314308479,-0.1401407778512714,-1.112324946078452,0.25844861206956926,0.8988576799881559,0.5351666889393242,,
4.850495000000002,-22.210757146407882,47.80192004099431,15.704150493086683,-0.9314887890036117,-0.5272281811559673,-1.3749414560208193,0.37507256579443465,0.9296353680641766,0.49293709522214824,,
4.859997999999997,-17.226626657555553,51.062439215028824,21.015669591521196,-1.1177324208220167,-0.4022730995552529,-1.458320016491126,0.417643673491404,0.8132142672895764,0.3050162313733668,,
4.869502000000004,-13.998710125951533,53.46383937981087,24.571662004211152,-1.123202569595217,-0.12529031567538634,-1.3669748617570654,0.1851227410786559,0.5864129508024919,0.18967938340303644,,
4.8790189999999996,-14.448269341312741,55.21913518693428,25.250517735812483,-1.454663049145332,-0.7487374071089923,-1.4965846338753488,-0.18903994659863116,0.2865454861318659,0.18610595380925274,,
4.888528000000001,-17.608519299142497,56.12218427980514,23.295532771572773,-1.5041219538594295,-0.7945243233151333,-1.2641859906925765,-0.3926896500500794,0.007440048926840603,0.09344209002218143,,
4.898046999999998,-22.173278483562644,56.19109371812781,20.03360865237065,-1.2517407181411624,-0.6134565032370312,-1.1248150233075735,-0.47064067326302444,-0.18622013112198643,0.058675526672061384,,
4.907572000000002,-26.770712696831975,56.08371789394647,17.05882865099349,-0.6449184506880727,-0.4877257678548974,-1.40696880396619,-0.4716638696335281,-0.19480154683561118,0.1201250269755784,,
4.9171499999999995,-30.048338485974003,56.78678694592951,15.425687488520405,-0.26666595192068177,0.17613783744395872,-1.9119427720111155,-0.38021390230731006,0.022536050950554474,0.176727279216627,,
4.9266429999999986,-32.314251220579614,58.19813300462434,16.228689404282278,0.0319429473771679,0.5604984153491047,-2.458316458686022,-0.30389514429984177,0.19487527850494016,0.5201933539346395,,
4.936152999999997,-32.633486186884255,59.64165966744728,20.242783802924603,0.2786071782816398,0.34130954528356533,-3.3537944540040763,-0.11326804969495327,0.25458967111671027,0.8535411840542535,,
4.945672999999999,-31.35974767722226,60.903609527684196,25.975839377994273,0.1554047820215616,0.9338261498707701,-3.162554150754424,0.02632520537786892,0.27315849379208323,0.9212497023749672,,
4.955188999999997,-31.096116055419625,61.008305761951604,30.938756333752373,-0.7509221466191085,0.35849144062082816,-2.416064793536035,0.022405784400716108,0.022511619250430277,0.942395520613539,,
4.964610999999998,-33.598171298531774,58.96218413949906,32.96074559242919,-1.3799661356370347,-0.2214259217660906,-1.1626816030247686,0.015123545493825939,-0.4876230443637505,0.8160940607835176,,
4.974125999999998,-37.95120399877843,54.74753091799652,31.393886225641662,-1.920678723044177,-1.012905135343607,-0.3568098079045538,0.05906813344412282,-0.9744690529226904,0.36339118451356683,,
4.983637999999999,-41.25967984888209,48.855325721179426,27.60921737849334,-2.4203635348428096,-1.4510009829935022,0.09394324277888878,0.23995659745709289,-1.2345497760235373,-0.3208336445181475,,
4.993335999999999,-41.66976745629467,42.162518193124676,23.175344039325505,-2.0593117560095,-0.7518075986576153,0.3842560698806049,0.5395631773448467,-1.2410301907084755,-0.9347929141803409,,
5.0028330000000025,-39.715479791556945,36.817604639081424,17.944372133135417,-0.8701254905254046,-0.5098543039441487,1.3056224718088287,0.6736151036381349,-0.9021710989181999,-1.4058514294317,,
5.012356000000004,-35.029792009300806,34.598451971209144,11.814359906023256,-0.14688442924933412,-0.24331615758740338,2.2240913490227645,0.8610942468919872,-0.24035323752463625,-1.8776923114028432,,
5.02187,-28.16932565926018,34.950574523103874,5.725527223452907,0.986132331200541,-0.12249640002544099,3.136182441255077,1.1116540978977891,0.2346055257427759,-2.0910594020306927,,
5.0313659999999985,-19.955054910530226,37.07562409020264,-0.6507193692199094,2.9299579101688757,-0.7791440721733521,2.0637361668660246,1.316427525091561,0.47173767469649885,-2.2469298702697027,,
5.0406580000000005,-6.77872020817851,41.092372828144825,-1.80221594928433,4.357460611642207,-0.9582775130434288,0.7646234377550056,2.0674717086790744,0.7452802219412088,-1.9005942520599841,,
5.050173000000001,13.573310606785975,45.36778415563282,6.0818883799939005,4.189728921017335,-0.9429474851259869,1.183762765184393,2.9302677722017636,0.9458757075368914,-1.2325907957026965,,
5.059911,38.8608898712942,44.49509653263971,19.937899151724,1.6248761120538762,-0.5948420334868911,1.650970481064312,3.5164625472734543,0.6309743576126593,-0.8365496575252105,,
5.069409999999998,60.52744549051622,37.09311562908088,29.21528305005446,2.4631232912078276,-1.9645935540441102,3.189349880820239,3.5882299284722357,0.0333253315910211,-1.0074734864844002,,
5.078923000000003,75.97540662465046,29.12370174478887,32.18523614696455,0.9884783084692523,-2.6645657876390545,2.576912985201703,3.0362599845939506,-0.037931251190996,-1.1132139108260959,,
5.088439000000001,88.28295947734237,24.80121061608056,31.549515019716825,0.2467129668321664,-2.6464698763797205,1.5463254075461437,2.3196773162495585,0.4324874164679677,-1.2572096911810053,,
5.097773000000004,98.58801703324119,25.53537219415996,29.289357280620617,0.8241034396951817,-2.4714201935547555,0.4613791778752626,1.5346604981418324,1.0788871935636097,-1.3408930118925877,,
5.1072890000000015,107.91932468308507,30.67069175773194,28.191125861750514,0.8741161543562228,-1.5833088639119195,-0.9597609614277827,0.949392979612348,1.7002666704498213,-1.110683863483007,,
5.116788,119.77070286850955,37.589754946395466,30.293909928963348,0.8544538496002411,-1.0993277114510418,-1.6879714556204048,1.0360599245748132,2.172924949740002,-0.9221961544296194,,
5.135887000000004,152.14106109703556,46.14074066266474,42.039315853295655,-0.6704748663477117,-1.1183407947859163,-3.7625706956772698,1.5718055184563797,1.9645539516791402,-1.1491725980554084,,
5.1453929999999986,170.13793819908528,45.23152386937982,46.24546602889919,-1.8202837574244106,-1.9949093724894815,-4.635565812113262,1.926210371831893,1.6347213699143233,-1.7419053191942684,,
5.164400999999998,-160.65391006269815,42.164337005905814,41.49746525984026,-5.269545589629971,-2.2936485805399953,-5.453292262103589,1.5379289540339631,1.238011721041441,-2.637979106123672,,
5.173858000000003,-150.8918255226537,42.76827635658627,36.26650817916697,-4.454251534490325,-1.1254862604655982,-3.554183205381402,1.0499748513329041,1.0160633005128805,-2.4344626690669062,,
5.1833659999999995,-143.85476262666722,44.09412533773028,31.485359365180834,-3.8678808128398816,-0.3315986626141966,-2.002340173023492,0.7072488828377123,0.804638115821892,-1.992307785503559,,
5.192881,-137.08902212037998,45.32039694357627,28.50306811742962,-3.1064192422516324,-0.08253501546418467,-1.4232210556771292,0.7184845942234178,0.7061288585433946,-1.613342218038203,,
5.202385,-130.3468400525128,44.99750610908087,27.25532620091742,-2.5778078919650658,0.1715257087476283,-1.3663656596440474,0.8807361527304878,0.3991906624175182,-1.2649229195746754,,
5.211902000000002,-124.23613213833538,42.41186211259193,27.112368029790378,-1.5534489424180407,0.07703782053814821,-0.9883532358331947,1.0339284563457938,-0.045580532536684704,-0.932599267449627,,
5.221420999999999,-118.93174104163295,37.83316722252153,27.563580443364316,-0.7726760877864904,0.13710635764703813,-1.0771094065961921,1.154262823250542,-0.43104849159778486,-0.6515399674352333,,
5.230927000000001,-115.17510575938168,31.778831880234492,27.63590201907528,-0.07788317786377005,0.06377630671033489,-1.0474095624821447,1.1216536761853169,-0.7790879571763559,-0.46967272941538324,,
5.240613000000003,-113.3840117969921,25.01232009117747,26.75620929677449,0.15590877668505376,0.058254315752566045,-0.8508549227081461,0.9130295044758907,-1.0534241808554474,-0.4047242389779807,,
5.250137000000002,-113.03938875243948,18.409576875052636,25.0706501833118,0.7162921014891083,-0.12003129595977245,-0.39721557295270943,0.6483909408693486,-1.1552325223320323,-0.4254914768342,,
5.259460000000004,-112.91547147091491,12.665692367170935,22.594090360494548,1.5272674809572546,-0.6452944513880841,-0.3279480327664454,0.49844433848699027,-1.0378118879498213,-0.5644399299751841,,
5.268964000000004,-113.13897903562032,8.133964077978883,19.388486538942857,3.120513991333524,-2.6546916335958457,0.9812746288450065,0.29521909851469663,-0.8595808990885977,-0.7119908025882098,,
5.278658,-110.06417740504493,5.1701238702766705,15.561482969740373,2.775226120745413,-4.792263832016437,2.7090739924415033,0.7707730334889824,-0.37839259245620077,-0.9142078770535707,,
5.288001000000001,-101.38728962292598,4.099108456861733,12.45617940873599,1.6491561907121919,-1.1339989918532312,-0.7645318362710588,1.7394716801037553,0.21539845909612096,-0.8165064790591227,,
5.297496000000002,-92.92228623397223,4.156890547156903,9.735612855034535,1.992521944182745,-1.748184400572799,0.03311762459032522,1.6641222715935462,0.3372370275653859,-0.7073984980967812,,
5.307009999999998,-81.8914157743171,4.959056885127946,7.9776798276636764,1.7305747030368375,0.36936928273281006,-0.6785090273461786,2.158243195407452,0.49557112002680487,-0.5583797960026137,,
5.3165189999999996,-69.68145619526483,5.921373498845827,8.212651892741032,1.859173328072941,0.6128626423195169,-1.8276636218371884,2.3902692040427356,0.5281483253399855,-0.20498924048940104,,
5.3260390000000015,-60.359037672119925,6.929212903295322,10.008495729046723,1.497628945607786,2.4234595628054754,0.28392265466694316,1.8081890976993507,0.48502482399565333,0.14326168184103785,,
5.335571000000002,-52.14750820585974,8.56812783055347,12.875490181549852,0.8088342339745338,-0.538341107621921,-0.802937299445091,1.5413280004130392,0.6353680196196698,0.35580883802398,,
5.3452509999999975,-43.506385383053804,11.000561540665316,16.682361015005476,-1.2415187930613012,0.3503185526876434,-0.2237032302793624,1.534881311648098,0.8960354772376352,0.4691493818612486,,
5.354565999999998,-36.84151758017162,13.550579280817583,21.302066238602443,-2.771223173659373,-0.5473780124938133,0.32542191510739055,1.0779566377243182,0.8981651219943122,0.6409145598810022,,
5.364083000000001,-31.318264805740277,15.425707812763422,26.142852511393794,-3.8673770597246,-2.0300258414350387,0.2323440528135666,0.8407332310653975,0.7664300078047918,0.6912632336373842,,
5.383099999999999,-28.876179037595342,20.24077511194748,28.779434272184375,-2.9010849328348622,-1.3968781292140109,-0.8663770801927044,-0.4716102974107453,0.382811148163928,0.023463258383391795,,
5.392612999999997,-32.330709255309,22.810314368010257,26.866394566116583,-1.1526204023623097,-1.621715120513298,-1.7125196214184677,-0.7977729818586806,0.14679438495371125,-0.13019422341285738,,
5.402225000000001,-35.677823496285036,23.91341790681037,24.64613279032724,-0.6693547498978378,0.44690650934072007,-1.5965792401449843,-0.6388063903442288,-0.07642607478178562,-0.17929805302450638,,
5.411709999999999,-41.145413955270456,22.711085661619908,22.859557822410814,0.299459059710178,-0.008868245565772408,-2.900265523951809,-0.8119709337012698,-0.6329584652744359,0.07632140937400578,,
5.421227000000002,-47.15762457657201,19.743485944611308,21.364892265648166,0.21723213792825688,0.6895275735673979,-2.1958732589659196,-0.8048987072441829,-0.9799747236405991,0.13899781765676147,,
5.430743,-53.10113926682403,15.318809964235852,19.980685139025496,-0.39745185571551256,-0.4922903714387806,-2.0772515280213466,-0.7384185885519305,-1.2361348011581534,0.08551251198682729,,
5.4401730000000015,-57.13265981991824,9.662441406600092,18.897573198003165,-0.8998548230255229,-1.2254965637886832,-1.7388728269451355,-0.3562410789224417,-1.3371486867406823,-0.03672191286148457,,
5.449674000000002,-58.19446829707858,3.9146697904746524,17.663723380842768,-1.0761480146412863,-0.9320461377005932,-1.4112181404050357,0.1740326310546302,-1.1659784809292413,-0.2918020727992653,,
5.459209000000001,-56.24021192345592,-0.5552777867318301,14.852130299099485,-0.3536572338497663,-1.0029163814315474,-0.988601142483325,0.637686168219864,-0.7558661120020163,-0.6465968292277852,,
5.478403,-40.94027423520651,-1.401215187161535,5.806726968104636,3.068590052955786,0.1557663811773812,1.5395881293067288,1.9025658215586123,0.4978890899357671,-0.8969639395359785,,
5.487894000000004,-26.669050589240094,2.693896576925911,3.529045389079302,5.139106213477712,1.2258178775201314,2.0870532332307334,2.7883692775513476,1.0367561381367303,-0.5088629561429195,,
5.497411,-8.912965744102399,8.2986033181393,5.792175783817059,5.432995294526609,1.7088076747093366,2.7532046505123957,3.4450034912098735,1.3861123070667656,0.10422750207705545,,
5.506878,11.565478364414046,12.014906219749966,13.358559717387966,3.162221037398192,1.020023262981106,3.4374255476548816,3.8650068742388286,1.389054793888436,0.7671444775222446,,
5.516396999999998,32.95467727913945,10.658428466553454,23.16577447664376,-0.05838827731742589,-1.0387422028721958,4.827068203853301,4.0789946801483055,1.056989366461854,1.088356140824516,,
5.535454999999999,68.60131492995686,0.539824201651406,30.484396408137787,-3.1128065366947095,-4.6896356028037705,2.7738532418823403,3.321628661193462,0.9442665129815315,-0.05163725226602255,,
5.544974000000003,84.29886578376188,4.027203654525198,29.349385029994664,-0.48104160213373676,-3.956074232248854,1.4413208593402755,2.3794233834216487,2.1743000204514047,-0.36286299344999834,,
5.554289000000004,100.91034156542696,11.633381703640724,32.648469358148894,2.6383590319559818,-4.533118097830816,-0.01792994747830082,2.0473308221016215,3.0026379080876353,0.19065101952138014,,
5.563805000000002,117.31283114773288,19.007717522511832,39.59274220440669,3.6908865083671167,-2.832152627313055,-2.50981718277544,1.6923923911179846,3.062222556622265,0.5021877156333185,,
5.573391000000001,133.02468090810092,23.935287645323175,47.133737116699166,2.667682187717553,0.6609368960511675,-4.760872251009042,1.4498212640797625,2.733077451341508,0.3421054195738958,,
5.582902000000004,150.84979633399354,24.511710259289803,53.000712068857716,2.0582574702032637,0.9776020730683008,-5.470067224594399,1.993754052753701,2.579211551100379,-0.30102355551160365,,
5.592407999999999,169.1068216649867,22.766661329952537,54.18944814390088,1.0558488154934835,-0.6413604313010514,-6.435066684196342,2.2604883925489436,2.501814714536148,-1.2292589064261434,,
5.601928999999998,-174.07463811857693,23.117290868272047,50.533148435809814,-1.2809763605311764,-1.1597093545430521,-7.335708869077866,1.8373294521638348,2.513253559337029,-2.0369969761417317,,
5.611435999999998,-157.80697625080856,26.384372138186496,44.7355629815727,-3.8141906876169855,-2.377653664824037,-6.869366766298273,1.5167477032536145,2.6400540819820075,-2.512765895275398,,
5.620877999999998,-143.5088612347561,32.02394240775604,40.1506690065169,-5.871033036538724,-2.761055311022548,-3.892410076034103,1.0927195881817835,2.5302929543212014,-2.305377439219266,,
5.630381,-129.9442395070839,36.29493541242562,40.83676897138686,-6.5060847191551545,-3.3363512731995657,-0.7621403724963941,1.1637981409812443,2.1169889328391536,-1.3828689910368221,,
5.639889000000004,-117.01285591293164,32.702253346324014,44.81007306603274,-4.3199107718837135,-0.8334226261937173,-1.207356605221285,2.059299525348276,0.9335750856717967,-0.6670409572741601,,
5.649404000000004,-107.39472752718953,24.283087280516895,44.06012768622558,-3.795063618365699,1.0626031231678805,-2.0783757522968984,2.3961348116477477,-0.008432376819821452,-1.0608493283229719,,
5.668613999999998,-99.34321296406453,8.91685895010433,35.523403503319585,1.323876393969388,0.622297760818019,0.47575000419486557,1.285217867851734,-0.6723885661493796,-0.9315037988657439,,
5.677945999999999,-94.77585307800389,5.5993284367764184,30.64632969427048,2.4881209245444498,1.0604079451623494,0.2274274051109264,1.1316852305179805,-0.06073327068586685,-1.080577684396696,,
5.687452,-89.20356717968127,5.728204079479156,24.48415210969193,3.474884035394509,-0.014250204507814454,-0.10308790857352901,0.9819293643671433,0.5352626578078337,-1.3327269639052108,,
5.696961000000002,-81.06232477743576,8.861605416457062,19.947959780877138,4.117479407917435,-2.039604138031898,-0.39281850984319666,1.2705066697479501,1.1880220180424306,-1.1045826590836403,,
5.706471999999998,-66.45018018741784,13.586920637082073,19.47391977063579,3.617018162956575,0.6164259489802091,-1.9863485964934944,2.395034279571122,1.8491935923977925,-0.6672354540460615,,
5.715980000000002,-46.70607904152621,17.830314443375485,22.968456448190896,2.4647745443448486,4.938683713132688,-0.650249259625635,3.2550807721832187,2.152298052775592,-0.364843508956286,,
5.725496,-24.763218931444747,19.530491914208277,29.3453014895744,1.5450723314843937,4.883302124288881,1.793105995463781,3.5984815239158263,2.124545163465478,-0.12708884764877837,,
5.735179000000002,-1.5706134195730521,17.75280481407836,36.39211950119597,0.044026504501006786,3.431219428691812,5.427753999358859,3.893932768535106,2.085570644064131,-0.09751508387708845,,
5.744700999999999,20.14548982248968,13.778580324329068,41.203046269307634,-1.5913119274900018,-0.7454430604522938,7.548009359979918,3.761626031560261,2.0051841102991514,-0.23935690488441594,,
5.7542100000000005,39.198120981750286,9.558288156687407,41.696230531385815,-2.062028291488185,-3.0845776190881873,4.949940022425896,3.361764431224901,1.8451280455946255,-0.6857076965919303,,
5.763719999999999,56.67409410515173,11.179266521996798,37.46816225506263,-2.3748144700707186,-2.5823875055163823,2.9752264557849495,2.453259193282945,2.4438547889214695,-1.4829244859348918,,
5.773223999999999,73.53594481984874,21.196110567855175,34.79771303920461,2.7886035091175962,-2.743719697933408,1.9686606834488618,1.4488481708446328,3.526225111085115,-1.4856653245593383,,
5.782557000000004,92.4552720554724,32.34789745331549,40.041030406216784,5.771803971880888,-4.099453910490455,-1.0031510051206474,1.3409535607547236,3.8164974465659283,-0.6826096034293597,,
5.7921559999999985,111.98806582156092,38.86464013058016,51.114225872436364,2.929118869689033,-1.2616412009454214,-4.769182692411506,1.2947998874379143,3.1767471930270856,-0.08815927300171161,,
5.801661000000003,131.64699549895607,38.29874161068456,59.94180888735151,1.5681610171039408,1.0815534086960588,-6.038511964921773,1.822231990774643,2.476190680446966,-0.7056224350068033,,
5.811190000000003,149.27030058818423,31.955491573572274,61.61158893833965,2.1578314276329222,-0.1483178910325342,-5.0833818425884925,2.500007145155202,1.9139997384681597,-1.7035419162951002,,
5.820678000000001,162.20359419154326,25.43003960684586,55.12570476090899,0.8611957759445655,-1.2310725738525186,-4.094357686134158,2.2971010152173936,1.267007564090213,-2.5382484467673585,,
5.830188999999997,174.36899291860192,22.735013334081692,43.91665132870677,-0.8653926200942478,-3.2340226045833464,-4.504855902301361,1.8557173361236745,1.3601809579302893,-3.2295682864905375,,
5.839708000000002,-172.79860535067368,24.215076617039895,32.727281657040656,-4.551076169475009,-5.290493632608673,-5.546915931130979,1.6727171331598436,1.711271251762749,-3.252539396411452,,
5.849133000000002,-161.09876667684551,28.867827726536333,26.62232392916599,-7.196250286372651,-4.563125574061471,-3.6879401721721172,1.368298404050863,1.8588996140406724,-2.261049216084344,,
5.858648000000002,-148.53067430369188,28.9938263593435,30.76388548603192,-6.919883015998693,-3.526106439938843,-1.5837648694449684,1.9247207154633776,1.0901186125247484,-0.3849520662999759,,
5.868236000000003,-135.7186516253071,20.18108007445972,38.722367577853994,-1.4056365542715632,-0.07108934749683612,-2.214835467437212,2.924341158692497,-0.10354794034769588,0.5248070469282774,,
5.8777510000000035,-126.34759751641215,7.098884195382917,41.53748652774867,-1.8693257142909183,2.6052087191959776,-4.247465766812474,3.08574969214439,-0.8133655614200497,0.12755663690828062,,
5.887363999999998,-122.74197760849167,-4.524257317397027,40.4984518583816,0.39275365590756106,1.5944295836413205,-0.04941623255080757,2.0755074507983258,-1.2759599601626708,-0.21101689365935558,,
5.896878000000001,-119.86002291692817,-10.307988261945948,37.86167330064146,2.195236106797166,1.8618769651844793,2.5056316969064465,1.177995990371544,-0.5324254857821593,-0.4398135619676323,,
5.906382000000001,-114.67682424910669,-10.571953343263067,31.4299135696091,2.6764653778919936,1.4456284702651185,0.8607300806485197,0.8736111355040752,0.5390776752326838,-1.0857387407527996,,
5.915711000000002,-110.28537096265423,-6.116312144774481,23.232289725266163,3.297001866339127,-1.7503341412055746,1.0418105971336773,0.36909383660698614,1.1936243355231686,-1.4993609615043728,,
5.9252170000000035,-104.31476865937795,1.495943938167081,17.208026733963294,3.4923961423592793,-3.8235954673443313,0.8070217921223252,0.6028335880758372,1.8426618740258558,-1.1433451252588616,,
5.934744000000002,-94.21987095354167,9.289573686236453,14.658431380832175,2.7074277128992863,-1.9598088643159985,-1.8507306235593295,1.5184860101805049,2.0476135956206742,-0.6883604693858854,,
5.944240999999998,-83.3544047922529,14.490753726218562,15.588151669933227,2.6416812614639955,0.027893309446541076,-2.052811057118785,1.7951076651711246,1.5540538385658051,-0.2545544442324057,,
5.9537559999999985,-71.99031308727066,15.777082914938338,19.361354465661815,3.628094773581462,-0.25784371854912874,-1.508198936030001,2.0287224055821405,0.8993838285795638,0.1658117746321627,,
5.963267999999999,-57.62499716858136,13.791380822753352,24.223843833994927,2.6072060618830877,2.7008426316836927,-1.251578401450743,2.7401570702547158,0.6590799247461941,0.23946473899902315,,
5.972973000000003,-43.392286611129755,10.920906307528448,28.029086977061457,0.19696538603414254,3.203182627833087,0.8854218692374753,2.762655825479967,0.7056946524285612,0.1506111614721347,,
5.982469999999999,-30.20746354698683,9.00290351588579,30.663169211831786,-2.184840305667344,0.521302798352774,1.5661821058837475,2.4655595204140557,0.9339779251210681,0.06842098412287073,,
5.991793000000001,-16.713313041035825,7.367381919513571,33.1238432390288,-4.356446338082982,-2.0220784931957962,1.25382585992037,2.45449581013346,1.1295651656187418,0.10313693992590543,,
6.001497999999998,-3.7203860602986505,7.165307702523238,34.098276727049445,-6.1347857186035215,-2.7924996558238426,3.3694766196501633,2.182580453440887,1.3888576936576358,-0.13995960205628177,,
6.011004,3.4420515286476694,11.320794647778346,29.740899475110172,-4.514601495349779,-3.462796643851798,3.0509166709447304,0.7724847152583108,1.4477337762646794,-1.1082870379741512,,
6.020341000000002,4.279330625204202,18.265821780047776,21.35636259794504,-0.38139937793367834,-2.1105503974307553,-0.2718646437132058,-0.44588304029358294,1.3174716018473693,-1.727172916903357,,
6.029924000000001,4.380080522832333,23.776154077828675,16.0239553935754,1.9729489369688409,-1.427286466216165,-3.9997783873563684,-0.32945512338453725,1.042361892889854,-1.0821550109985438,,
