timestamp,Roll,Pitch,Yaw,Acc X,Acc Y,Acc Z,Gyro X,Gyro Y,Gyro Z,Acc Magnitude,Gyro Magnitude
0.0,-20.20680916309668,44.352607027602666,118.73312957047446,0.1130579576667296,-0.1302860757902674,0.026123560785080158,0.046961950600530517,0.04621093206620012,-0.027003715448765155,,
0.009527000000019825,-20.07447326314245,44.301847692655976,118.70881699842707,0.14847823722897457,-0.1584981864429844,-0.0015442517397926754,0.04652930535620953,0.06013394025452167,-0.02875648165551564,,
0.03804200000001856,-19.421547505361488,43.72530790593215,118.42333868332796,0.3181042355022071,-0.23115888164770215,-0.15510120614237588,0.11039018290710911,0.16466955663799993,-0.08162824729361713,,
0.04757000000000744,-18.917736080234192,43.09217924170846,118.36302454441869,0.33825005722506335,-0.2594343258863945,-0.16217807904061082,0.14937252059097472,0.216703082504411,-0.09863106340807591,,
0.05707700000002092,-18.352307458132522,42.2947416861486,118.29915827460896,0.3787197540298536,-0.26045804140343476,-0.163709556577983,0.1734538747206039,0.24996388734107003,-0.10208244783978651,,
0.06660000000002242,-17.71319452001301,41.37615981708559,118.29897071355843,0.42239656064896514,-0.24560009979141945,-0.1280589988612218,0.18289461138595955,0.27822781703437566,-0.09767370028769604,,
0.07610600000001,-17.082653547128718,40.313712624992775,118.45858306452178,0.5184218128439219,-0.2535015664218624,-0.1931150887594238,0.21131719071537286,0.31820208833700936,-0.07150618079240473,,
0.08560600000001273,-16.497972665147906,38.8610588641637,118.82041610039452,0.5606456671592689,-0.14001578582031474,-0.23428863208034836,0.25539243356647723,0.36739315185133553,-0.022145054060328063,,
0.09511900000001106,-16.07230284073188,37.39999343354279,119.34365321871647,0.7717816776791004,-0.19564347395440562,-0.47158712338168685,0.28484178438404967,0.42264933605044624,0.03366558919389515,,
0.11412400000000389,-12.377084638921062,32.05952121157036,122.46958143933036,0.5499957006246217,-0.3052715414156948,-0.29307619925843614,0.3087150982583581,0.5820579355748553,0.10328293223377191,,
0.1235680000000059,-11.257835200756718,29.395518775494946,124.15488733157144,-0.6310351467846027,0.0158222250921191,1.5132808873310808,0.34691973213876065,0.46432725320358215,0.2000541803921973,,
0.15191100000001256,-24.28426093821699,30.308917369474845,125.02167138508385,1.9022868912910647,-1.0370924904500216,-2.186328530453234,0.3041480807468296,-0.6582508234257187,0.20378630781335744,,
0.161420000000021,-25.847881746247104,27.938041068485887,124.55218372336334,-2.5936533431672832,-0.3547862996663765,0.07704385710070544,0.5523639606133656,0.05971173402197312,-0.021392623509980155,,
0.1709419999999966,-30.13843695151512,25.961233961505005,122.58819921195983,-1.855138649411157,0.4046067623352647,-0.48949684186471926,0.7609197226632497,-0.4053964355183719,-0.06778283044973393,,
0.19014800000002197,-34.17498154916256,22.01344458577203,118.86367476890644,-1.3511535277628721,-0.8345225925415377,0.3887119383540237,0.5154093732426341,0.17711091891751765,-0.23352043249242407,,
0.20916100000002302,-34.1883191830577,19.543899116888355,117.55230107459164,-0.05501580961511769,-1.384646418772728,0.6038727756900675,0.012253216574767026,0.16556847896490381,-0.2010407195824513,,
0.21867800000001125,-32.93339001068989,19.476036492470357,117.6366385494185,-1.0139971259482294,-1.7781023033153296,1.756710074937418,-0.09049479962418368,0.22756017672898027,-0.1040558093211648,,
0.2376859999999965,-30.175160274506013,19.5125142730628,117.93986525070136,-0.2892421662762033,-0.6008576410768881,0.34045132891170454,-0.1985951010606949,0.29651022227170215,-0.17530445969020647,,
0.2472099999999955,-28.882023740237837,19.48542057941072,117.10242722214241,-0.1466632983697625,-0.42468679956187433,-0.3771524689024821,-0.10023680856955938,0.2301505893679413,-0.26528231764210575,,
0.2565360000000112,-28.629408058259983,18.58279777115561,115.78930217355932,0.07637437518351936,0.6108441060665483,-0.7285698806958482,0.1484977357015115,0.13448293799937996,-0.299829082904705,,
0.2755640000000028,-28.400191747106057,16.43588616785693,111.33946411738816,-0.09832064373030017,1.0222203935240013,-0.9410368633527416,0.2367302836022031,0.06315514374145945,-0.5008595402414068,,
0.28507300000001123,-28.511221573341714,14.485002317390173,109.29472425525205,0.6215725399628306,1.4723248021415076,-1.6046566246657323,0.38288644635299285,0.12611840193690382,-0.4305829431664198,,
0.2945750000000089,-27.6005206275961,12.372328908589827,107.72437761335134,0.2693626705776947,1.6251315496157799,-1.1872243271934046,0.3542572956326798,0.31248956479506074,-0.36527858965448157,,
0.3231090000000165,-18.167786599982904,7.881382614460182,106.28089567697911,0.5513416944136799,1.7792106538916683,-1.17647407154922,-0.043381124766041494,1.0332349158540448,-0.06771158561909885,,
0.3326240000000098,-11.12688643453612,7.3540677461182975,106.39504186930932,0.2818664727651627,1.8968955214931043,-1.153802936847903,-0.2745581065058832,1.3813336241240692,-0.038065242550734985,,
0.3421430000000214,-2.0245698110213395,7.298573329798214,106.50363655663612,0.07216803094435716,1.8517521014331004,0.05671373726328979,-0.4792156731405586,1.7492193188444753,-0.04529624894906141,,
0.3613470000000234,20.75864178997956,6.952270305236149,106.45970354657682,0.6282007449740706,1.4459934725349504,1.415810352928444,-0.5997499399348614,2.264850630757708,-0.09468145874973528,,
0.3708400000000154,33.58493089688309,7.088073315378661,107.49908833722755,1.0929399393886252,0.7574215511859056,1.5119189823485413,-0.7657710937623741,2.4366108082759528,-0.11770222913114434,,
0.38986200000002214,58.820079282235625,8.522598319372552,108.57675766442868,1.4186853185532222,0.02072966108085848,0.9408167025475704,-0.9434333661429362,2.1990114105132603,-0.28635530939245324,,
0.39937900000001036,69.24229985330304,10.496210634554155,108.67331421182064,0.22839646776713704,-0.6344213770707192,0.08934761755819477,-1.0329698972488934,1.8282155660758233,-0.3385584791000659,,
0.408709000000016,77.32208783044072,13.346072521659991,108.25712697322518,-1.8152944393580353,-1.7468888672042744,-0.32516768828198406,-1.0453424829533244,1.323734840687398,-0.43040459182385327,,
0.42772100000001956,83.24722193129651,20.64603739098422,103.65704400482439,-3.023829002105791,-2.528207591305103,-0.46009386757672655,-0.8094903587642067,0.035865052731779444,-0.6736449430674647,,
0.4372330000000204,81.66091573402521,24.38370136693882,100.15229903266861,-2.214594531909284,-2.626124283910111,-0.26429359013664017,-0.6753867221888519,-0.4409946349489621,-0.593055217868869,,
0.46578300000001605,60.31239202962382,26.358384289625487,86.95921930725113,1.113750221301817,-1.5170861329933083,0.07585157138567634,0.32020304470545075,-1.538282434069176,-0.0005326757500180358,,
0.475465000000014,52.330255898838374,22.823652553411176,86.97447649952913,0.9352306573064965,-0.5589255187751656,0.76825461369647,0.6313861806908111,-1.4874864290284249,0.6547778795997028,,
0.4849619999999959,44.02471642803553,18.26369356515115,90.09106491427404,0.6698500011096139,0.6439590307823284,0.6693259070423202,0.8758239050742852,-1.578283200034377,1.1936147639826775,,
0.5039780000000178,30.486661737747674,10.408456834301013,101.33350918842537,-0.4885582557966011,1.866559815500405,0.9951208514766388,0.8514327189152477,-1.101370270989438,1.3862243622489783,,
0.5133120000000133,24.413130159787887,8.413484102992145,106.05961579541446,-0.9707769839151235,1.4080496877389916,-0.046810488417793235,0.6822234140867462,-1.0618121356496473,1.0466567637680946,,
0.5228210000000217,19.30522293426647,6.99150737089244,107.98830247730052,-0.973394153383167,1.0836373111289646,-1.1413840887684983,0.579121675392075,-0.8755206511219689,0.41577869268285855,,
0.5323440000000232,15.906449245414068,5.2841614160119095,107.07687854700359,-0.8897150773325327,1.2085720748195548,-1.395071766852862,0.5391316356104835,-0.5316790373386968,-0.219522651545092,,
0.5418450000000234,14.368157148289045,3.023063100307006,104.62282500830578,-0.307355029904746,1.5570663865592955,-1.4224886506211958,0.527567810897501,-0.16166286579404038,-0.5627061408741397,,
0.5513740000000098,15.433281804647988,0.544460051903008,102.56816416444518,0.6576774129214169,1.941662485136921,-1.0743399919792067,0.4391452489746568,0.33312454681084513,-0.47502577706952853,,
0.560877000000005,19.579194928023515,-1.569146002399697,102.49926157508565,1.4577361644199063,1.7132991955923584,-0.5117421167790135,0.2402929400421732,0.9104561623559675,5.1624246239937626e-05,,
0.5800800000000095,34.83904608358935,-5.447504894312954,109.74754270903306,2.345896193826702,-0.05331217326271192,1.1216921450235247,-0.10631425748801163,1.7568224399917713,1.198329583575918,,
0.5895810000000097,44.458253455001575,-7.627433370089303,115.50582533682763,2.492722720436224,-0.7329547953699829,1.2561718285279204,-0.3213057391610355,1.9463845952736967,1.5107715720862773,,
0.5990880000000232,54.4589662722732,-9.616697383761041,120.6188216117768,2.4989097348667597,-0.7693283083753951,0.640456326628346,-0.5714355503317342,1.9471950085627174,1.4542808343097882,,
0.6181360000000211,75.08046588196736,-9.403628290138185,124.6678532986155,1.6498185408003028,1.66128931485662,0.8903990588571747,-1.2985421784592788,1.4536078454416805,0.5868383631563361,,
0.6274410000000046,82.04126267505573,-5.062075167104426,125.39923940858655,-0.6194273778605721,1.5123111496012673,-0.21554839306956708,-1.512082558740951,0.6380568214491342,0.3107339611390343,,
0.6464370000000201,88.9709760185916,8.687913771134152,124.20730138149473,-5.355625489817065,0.150217765962554,-1.227197334304337,-1.4475845378412855,-0.4688711998369307,-0.2953279909094059,,
0.6559440000000052,89.1993977253511,15.16005772883207,121.11076788086888,-5.556989136144477,-0.22351399219424753,-1.7026098355644157,-1.121308630035274,-0.661307203987784,-0.6411511613455948,,
0.665504999999996,87.33647852047696,19.652293576979552,115.20713983421457,-3.6804307788592974,0.09877770675803403,-1.7452737640834532,-0.6303284459125998,-0.7383315175027243,-1.0824477275550242,,
0.6845240000000103,77.02291763855155,20.634990781409922,99.50430690618798,0.6990135536876357,-2.036027551454248,-0.17785099190094966,0.4143358478383678,-1.0396635682773339,-1.1674839310383036,,
0.6940240000000131,69.54305387882229,17.702436268781543,92.71154170902301,1.5413808428102196,-3.888234804081489,1.054606975183888,0.7325478345846566,-1.3419898963041328,-0.8796984342338572,,
0.7037119999999959,61.9118465137986,13.310860200867761,90.67076671249286,0.8150281788425336,-4.173941721029263,1.6805432515714736,0.9215980167742756,-1.4424158106808558,-0.01252342237776016,,
0.7227370000000235,49.118517592096275,2.7115369597042607,101.46352402656962,0.2014813675254291,-0.464727700130967,1.1483640720243982,1.1404629879131702,-1.2118842041789646,1.453168454815018,,
0.7320650000000057,43.866056491412394,1.1694810830786382,109.23388974879701,-0.286058915938894,0.15042212038295869,-0.9870960916636138,0.5782067452903725,-0.9252639749295142,1.5787410845320013,,
0.7417650000000151,42.37526638933068,0.8943594803731565,114.53429301730128,-0.4996823992362509,1.6649159880372204,0.23266808466019623,0.16396844652128986,-0.24876778371680752,1.0552444996622292,,
0.7606090000000165,40.20312616686294,1.0214725335632577,114.384973980896,-0.32056852083638315,3.8716209363858503,-1.9190855358331618,0.00160161227706992,-0.08344557714401048,-0.29386046108186986,,
0.7701179999999965,43.85770115768414,0.0789368947053232,111.32358124515108,1.2512971907390895,3.8943057884100867,-0.49921009820504575,-0.10867740689066734,0.7552809596928374,-0.6310577562671759,,
0.7986490000000117,63.17470764932333,-5.890686952062821,108.97574616394974,3.6939264611335587,-0.846703242013363,-0.04207615649127096,-0.057261917920727747,1.3124159369661195,0.3606699390061256,,
0.8081500000000119,69.9686020522895,-7.207229791364497,110.37662856938869,3.478999880527312,-0.4979966667204554,-0.22115366222767432,-0.2089816541053656,1.3686709351121373,0.45683605187006565,,
0.817655000000002,77.2980598815835,-6.93667711000648,112.13233312259736,2.9758282744495497,0.7280432252506914,0.06972235085205748,-0.5815697309560711,1.345107851713826,0.5591083102475265,,
0.8271820000000218,83.51131413886324,-4.391264507360959,113.95250475006014,1.5405657497767318,2.2310617047376153,-0.1236139134390457,-0.9597162092961095,0.9452364343559378,0.4758486910897915,,
0.836685000000017,87.65079341179128,0.4115976941378616,114.71556151250269,-1.4956556692007261,3.1683611223877666,-1.0971373045131545,-1.2241935445944236,0.3627808558957623,0.1701777043791631,,
0.8462020000000052,91.24233066660805,6.762114766123201,114.3852242872193,-3.526846429085523,2.6964461192335234,-1.2624497372672823,-1.4615722072575132,0.1275484454648803,-0.12262435806106346,,
0.8557090000000187,93.93181521557467,13.635362596846864,111.75746733460753,-4.867278638555855,1.4976586389799864,-1.1357481207019058,-1.4807318329430128,-0.04989629303726682,-0.6326466664680839,,
0.8745540000000176,95.9963107893915,25.02125578824758,98.98904568925121,-4.07494395182398,-1.4216368688984395,-0.21037866723692775,-1.0182574915793883,-0.09387308686881082,-1.5216267473105736,,
0.884065000000021,94.92304430486257,28.40420604633326,90.72125040887101,-0.010042184862950235,-5.9597289255994275,0.7119209315206546,-0.665191522007398,-0.24809537270544094,-1.5705672603402758,,
0.8937570000000221,92.84391536559264,28.63632057793617,87.99832820475048,-4.075196844324115,-5.994193966774651,0.6234803563195791,-0.05620278462955303,-0.3644003789950747,-0.3589001009362117,,
0.9034440000000075,90.24712647468523,27.638327886324888,86.16844277894411,-2.220348843870746,-1.3349523222449606,0.5528696233074673,0.17106960716827765,-0.466971754727112,-0.1338606431050748,,
0.9127710000000206,87.34771452225583,26.13556091683566,88.41769809516501,-0.5443013943155423,-1.560718150279129,-0.7432667419912689,0.2732127790943636,-0.5294614182063416,0.623822600293665,,
0.9222890000000064,86.16510975023641,23.821589192510334,89.99255349980164,-1.3928475481125326,-1.7570647668457877,0.0020580645388687015,0.456445435785934,-0.21844475580891423,0.34355872247175345,,
0.9318100000000129,82.53066453254182,20.557032202043803,88.54480308062736,0.8411802256044447,-0.005831650440175677,-0.6042065226751646,0.6433040291049905,-0.6779049919045841,-0.10124396805101728,,
0.9603260000000091,76.11052900199203,6.7785537753217096,94.67532939667963,2.0873531810681456,1.4210858417389713,-0.7834686926778817,1.091248803564059,-0.3128182070004971,0.3310560584032696,,
0.9698330000000226,74.52936642688115,1.506353162288078,96.93829660801421,3.2882954036812873,3.226832742884327,-0.5273498657763905,1.0797536598150952,-0.1994456750091189,0.41972800219009243,,
0.9983780000000024,71.36877672917134,-8.373368329382332,104.1536785801179,3.6282400377003277,4.427464257115111,0.6961662977156886,0.4532684225558905,-0.10848908097375766,0.09074546316393266,,
1.00788,70.37474448949537,-8.379227221085099,104.81324849243033,2.5954317607797193,3.04751074610638,0.6170015316961417,0.04767291505906475,-0.18253965423031926,0.02919098288863961,,
1.0175760000000196,69.39524591555785,-6.772154634162641,103.53747144080224,1.8703448844150858,2.1808267947909714,0.6779369369885331,-0.26618017808742217,-0.26075363004404917,-0.37499543442383293,,
1.036592000000013,68.84304448909161,1.0856134958204864,98.89382648054392,0.851380356932696,0.7514892325339994,0.13251589286100524,-0.9392681995982859,-0.12041036909687132,-0.5273651503652808,,
1.0459320000000218,69.72631726724127,6.645377062541216,97.38236999686957,-0.6618219384950574,-0.28438739011713876,-0.6688158960894163,-1.1287502281575694,0.01506777750783123,-0.4700978150867488,,
1.0554319999999962,71.49001382358357,12.302697004992686,96.0630925482336,-1.5032809362233122,-0.8003720716824589,-0.9498056444140449,-1.1688038663663467,0.20981714996688833,-0.47934068691055803,,
1.0649460000000204,73.96530119474323,17.835141897016022,95.52723239440442,-2.544223127139432,-1.7188177556051296,-0.7399462261697647,-1.1541357740069884,0.36131606803538663,-0.35979213000918014,,
1.0744650000000036,75.8766655215116,22.796284874313695,95.11465794687847,-3.8678247711428893,-3.2825155062751272,-0.35384951412583165,-1.0255758503636776,0.2631188584898362,-0.3063699112753348,,
1.0839730000000145,76.01294871483447,26.56535404815471,93.22674854772771,-3.8297369737705798,-4.671732553795225,0.5403617068837177,-0.7567595001562177,-0.032048528152417016,-0.47303761705026626,,
1.0934760000000097,75.71840237042142,28.622799131887895,92.6972196569395,-3.126412271341061,-6.183759759995206,2.0137065418647686,-0.41075347731781137,-0.07470049206597597,-0.1574907248218134,,
1.1029960000000187,75.71620827045284,28.379325651710804,93.71222439557093,-1.9628516937000553,-4.609353115055547,1.702594280218196,0.04640765383745602,0.0023998223095086876,0.14519068837968088,,
1.1126780000000167,74.45490765314392,27.340899751782317,95.06656939861102,-1.082461158586841,-2.0065461018462094,0.7763502534286744,0.22267467263236418,-0.20619797477948987,0.3395384340485114,,
1.1220030000000065,71.20126423284574,26.328293235557368,97.34802574158505,-1.287520338571433,-1.6501061447745162,-0.32144004450082847,0.26415284101018194,-0.5551288330700914,0.6891036122139366,,
1.1412070000000085,63.96946712996919,22.335935410219815,99.0354459415258,0.06752935284203215,0.9998070106139207,-0.31501441349826603,0.593319713667569,-0.63879649174692,0.2924573617049693,,
1.150541000000004,59.328399991196655,19.601529816297116,99.5730902034116,0.20089364270736024,1.5518153194347677,-0.7673350552688342,0.6831691847052769,-0.7637512627571568,0.3643928019764009,,
1.1600430000000017,55.58726281308906,16.63879033239535,100.39909710160674,0.2606208632511406,1.7865187695526505,-0.4314030289735768,0.7103685476252846,-0.5934523699472988,0.32811871457526,,
1.1790809999999965,49.16268520779411,10.32926222778708,101.1394630987219,0.5362860286049926,2.242838319157359,-0.36876694317297765,0.715271792121916,-0.4387888788677032,0.1237748067948538,,
1.1885809999999992,47.69167049910668,7.658696555274503,101.39455848234458,0.9537821503906047,2.3341593457426297,-0.23353991596530255,0.5839585070689688,-0.17458256827332752,0.05668800686297316,,
1.198096000000021,47.483211356837096,5.101873452681687,101.43166859628607,1.3995673468036778,2.553045097807663,-0.44921031698846137,0.5124344301499105,0.06704723395509905,-0.01347185263995658,,
1.21712100000002,52.09445330814113,0.2317529446976585,102.21687762577601,2.634443573584291,2.811198973798726,0.42103035425286384,0.33410671854690704,0.7007488700234634,0.1261081152996606,,
1.2266230000000178,55.76056409530069,-1.9296132334353022,103.19952758285241,2.970488685064563,2.460744950130688,0.8281577130663125,0.2618939475171396,0.8180460517179832,0.22616644066437844,,
1.2553380000000232,65.77944561244252,-3.004526261618892,103.81318975811277,1.353995643043838,0.7180185993090118,-0.10429283894632424,-0.40001675958397337,0.5957373999332385,-0.005166865332859618,,
1.2836890000000096,75.39574903444127,12.983018792564103,99.73761342587794,-2.6876465931586373,-1.5139993167012935,-0.6544052288286207,-1.479538649112708,0.3064783542078495,-0.47768343132863744,,
1.2932059999999979,77.80837155014437,20.225189711795565,97.60024020057755,-3.970427506118522,-2.8746468073670606,-0.31773940274134144,-1.507208231482755,0.23480174981483917,-0.6751376824829528,,
1.3027079999999955,78.16538456284657,26.324547455105034,93.92810423078951,-2.0886491865602284,-3.8165774500023595,0.4761928029715353,-1.2243530583743893,-0.06503396227007689,-0.9299274465990328,,
1.3219150000000184,76.40191213064652,27.19062826077775,93.14230156867389,-1.204827458206352,-3.5817340635734443,1.6321181758235954,0.1829759486804635,-0.11769994921233605,0.16631394865147556,,
1.331249000000014,71.78723788419377,25.839964985228544,94.7583956050835,-0.9441320810683508,-1.4103036616690319,-0.07419665450127455,0.3265316449132383,-0.8051643439129001,0.6821600380240941,,
1.340945000000005,67.08998436937634,24.417840208824416,97.7048194730563,-0.8575846923193687,-1.4500529213809017,-0.024552815758085367,0.3766045143610336,-0.8140342807114114,0.9248844375521904,,
1.359954000000016,53.22135571076159,19.142918079362293,100.05807940874504,0.2961540432604794,1.5590520830135841,0.0031539815503667935,0.7982973873410032,-1.3206073361546353,0.6773953028228156,,
1.397812000000016,32.32900249284113,8.906146206271293,105.40164278637431,-0.22050773506000662,2.6493808726221926,-1.066069381078285,0.7040154960553747,-0.4332747054236259,0.19283059617208237,,
1.4073419999999999,31.467008567616137,5.560790102188399,105.62444206589971,0.3017835250780577,2.6447321910240067,-0.5722814739298212,0.6961214369989203,0.021276336968812468,0.05563369026898148,,
1.4168300000000045,32.44044668994096,1.5831134244074558,105.9397146894585,1.296211148867618,2.8097594663647625,-0.5047358078063392,0.7183131719480774,0.4110457064779443,0.05968728132093775,,
1.4265300000000138,36.383330196709714,-2.2013411446859035,107.07991248827734,2.2998084473061406,2.4024850125920967,1.3516996337642426,0.508142924776727,0.9791678722009554,0.28892283831874505,,
1.4360440000000096,41.42358530685084,-5.256115644316441,109.07838241326868,2.7543110239607334,1.3465986597495816,2.3570164100546944,0.2760536229010273,1.1546332847185101,0.5635421966408696,,
1.4741010000000188,57.41152763441884,-1.5203978549070247,111.69198981788881,-0.46251654380760177,0.09496294902999505,-0.2816856397429958,-1.0910738160485294,0.2775212546678752,-0.12382729981599763,,
1.4834100000000205,59.56230798826963,5.050809616385326,109.62839189971807,-1.5436773094086418,-0.3080500257261756,-0.5248936495288354,-1.3836435062548011,-0.05775526829350651,-0.473156685174166,,
1.4929300000000012,59.80901405989611,12.437502235659332,106.89310680780108,-2.2231020987191576,-1.2181021814216821,-0.998052904090235,-1.417714345985167,-0.42105886682369037,-0.6955863462617239,,
1.5119590000000187,52.1957301406231,23.044140188631886,99.1477265787061,-0.9494436487333282,-3.104900955398546,-1.0096201348717342,-0.5878118117373851,-1.1592171384712529,-0.6525494680907827,,
1.5214530000000082,45.57997120007799,23.621938894044117,96.2538925933952,-0.8160499568947565,-3.529946273708273,-1.7381113248579203,0.05980265418688649,-1.2185207802208942,-0.20830882788826902,,
1.5501810000000091,28.139725290004304,13.835181417899644,114.33235718311367,-0.6756483702998858,-1.0446576672758559,0.9090276033654496,0.8868693811933478,-1.2362035042829167,1.93705580657487,,
1.5596800000000144,21.35129587070513,13.920549735880586,120.32429625365914,-0.6968369125208385,-1.2919464013359494,0.5136026497406112,0.5969920808131058,-1.1725331817096327,1.4961246606931098,,
1.5785309999999981,4.111236408816014,14.550985086684875,119.53440600482232,-1.2802115638693676,0.302580731133579,-1.1109648551383293,0.9032064780910726,-1.6127830249001303,-0.11665422261501816,,
1.5881080000000054,-3.709084225221895,13.36396005007227,113.66605579942133,-0.6885993367094192,0.790499454772763,-2.464119888517316,0.9044830154613875,-1.240747015103854,-0.8662704000054483,,
1.5975430000000017,-8.919149217519315,9.169136586005488,107.33389168942162,-0.7675945413160851,2.177948041075636,-2.074827379186719,1.1570250374537185,-0.651005162371387,-1.1605957024351208,,
1.6165740000000142,-9.994416749213872,1.1052436948947175,101.00592468547165,1.3764655491588607,3.7329027953386067,-1.052751939489423,0.5461914852612483,0.4669211143257647,-0.3385387663063435,,
1.62608800000001,-4.67797670436297,-0.16127637963905564,102.78096038456547,0.9743195007911778,3.1611009008233677,0.48096807871209374,0.04381574371672707,1.1026393155001613,0.45970390734714905,,
1.6450940000000003,14.128457578930385,-0.2858287419167374,114.54783822094939,0.5018431439119581,0.6999356622856132,2.9709546934627333,-0.7692798732607737,2.022932746014018,1.6324078374138826,,
1.654623000000015,26.251069177047782,-1.5537856123570224,120.52594495890197,1.1395317270703778,-0.1640522550324022,2.412310236750322,-0.8663960995764726,2.2915255441390574,1.5128485338270932,,
1.6641250000000127,39.63730686064121,-4.069929865693083,124.1763348018833,1.7143687271061847,0.6284468761798622,2.9482092159710986,-1.0089913886579664,2.5395052711350248,0.8484562688110086,,
1.69247900000002,77.00804227543524,6.6061331290421235,115.27955809617485,-0.972008408531555,2.5264470087520317,-0.1910677471495092,-2.3635261612979392,1.2484388868256675,-1.0640969047162263,,
1.7019810000000177,87.29882960997041,16.226382254109865,111.12611976204505,-1.6343206608020788,2.024179554763664,-1.0507001191596175,-2.568789222325998,1.103377432154471,-1.248385365051968,,
1.711494000000016,98.45262475654958,25.475165980652935,108.11201759456803,-2.609421590537382,0.420389491317173,-0.9485642270985587,-2.4481155670256376,1.3480855949600505,-1.4081695857894407,,
1.7305220000000077,126.79948145089818,38.308010412355394,102.99268103058776,2.3026856848785235,-5.505159232968276,0.9594512074223956,-1.665766631534567,2.127362595470429,-2.2618004913576595,,
1.7400260000000003,146.32714964576368,41.47672578868527,108.41745656286656,1.4847723927892609,-5.697216615180142,1.3422276144766307,-1.42754567568445,2.714088063344842,-1.4338297556937851,,
1.7495440000000144,167.5120105502434,39.22719692772839,116.55198802958944,1.7387561797495228,-4.75248528973243,-2.804660285590292,-0.8367847336962253,3.1515405942411614,-1.1308802248789067,,
1.7688280000000134,-162.1332205111156,21.427366672795046,129.55968187731986,1.0514775348644163,-6.416951078202954,-4.974666283985113,0.21154400886891586,3.20825533434094,0.5417545947140784,,
1.7780680000000189,-155.871564186394,8.998495746925823,138.72497485663908,-6.001523686395392,-0.14465448390250563,-2.652554018864141,0.958743055688027,2.5922050669949446,1.7609367375087228,,
1.787774000000013,-156.11394314509104,0.5377578195242297,137.80226243535577,-6.6721228904115515,2.1216238293853156,-0.11135319705562856,1.1535758943907624,1.2304505308691036,-0.17129649626244095,,
1.8067700000000002,-154.70642601916032,0.3299304083352731,106.82463059251151,1.032214495369532,5.5870349427739505,0.006502818985490783,-0.70041673964825,0.19075162079958738,-3.723972509434903,,
1.816285000000022,-152.6281329855336,6.618179367138422,88.30980509340013,3.0179031435673536,2.9246215851912196,-2.5233023972406055,-1.3155744050994593,0.2550750816694448,-3.719257629978198,,
1.8258110000000158,-155.05402517155036,11.046985091572305,75.13510482978654,2.1669332807543786,0.07461539472549074,-1.2748372973876902,-0.9538647516337984,-0.33819454856162084,-2.553634204491695,,
1.8448160000000087,-162.8401250166696,0.9711299851880871,80.15044470533029,3.3892308431609877,-0.37547093613333826,0.005433324758801276,1.3396565798772375,-1.1612490567182854,1.7644813141295486,,
1.854332999999997,-171.0415522973344,-6.259808633982488,97.9615651721402,4.713524781967939,3.6759600752064987,-1.2249477464791678,1.410663149585412,-1.6690637854637154,3.5173863655149096,,
1.8638540000000035,174.53706980218146,-6.482419602829487,119.49168615532437,1.874087991115599,6.784263974590529,0.9798293107417863,0.9540073385281175,-2.717739722107924,3.9823739066111994,,
1.8924480000000017,141.19766308793194,26.506807108485898,135.16488990919208,-1.5875242153550422,4.665040389576855,-6.694549851026764,0.10751607849695391,-2.650990797696607,-0.7414082123426714,,
1.9019670000000133,127.88329789733152,27.783957547469775,121.0477640766561,3.8769823609266787,3.3212305543842158,-4.332301884138287,1.2666276509216525,-2.019087949195359,-1.7582865018616065,,
1.9306060000000116,100.2531068564038,12.011781130728568,99.16467173785055,-0.7254171708198329,-5.218428555605937,4.689206367047778,0.6438169967483041,-0.520811461081734,0.09891786680332375,,
1.939924000000019,93.7354688331431,13.951531997745597,100.20396449900252,-4.77279133045448,-2.44112206279044,0.4250217786220688,-0.17495054329868445,-1.3161496146072176,0.4891219730660168,,
1.9682840000000112,88.575872147621,30.45482606400711,100.03031989127552,-0.16169424171268743,-1.1293428902588194,-1.5210690367853255,-0.9137262568028282,-1.1204838696656367,-0.29919233386312766,,
1.9780460000000062,86.26110711136769,32.81896592601009,99.45714673161014,0.10222805493816564,-0.8759253140291624,-1.9669073013083842,-0.40392280374237083,-0.47033015727289945,0.11534837084552055,,
1.9970790000000136,79.51092172048325,24.81295473608294,101.77700641679354,0.8822365933443405,0.6469529376265272,-1.6784458435787735,1.3634006522421998,-0.5705772223660966,0.6336006283290281,,
2.0065090000000225,77.26177814440125,15.929064256021283,106.13951875620259,1.5460396060576438,2.9948953366201785,-0.23187676580614416,1.8251606314865885,0.02111381419668434,1.0153453760321889,,
2.025523000000021,73.86661600698804,-2.0624597807508915,118.00264184121166,0.10981580399793336,2.4680218981604343,0.2630839924443654,1.6842151502987952,0.46941274727515203,1.068418624706038,,
2.0350430000000017,73.00492025341097,-7.961744998388329,121.24873632820693,1.5072463298870247,3.843761814279769,1.1291911023090475,1.1070107843394645,0.438414323043585,0.6671921080559448,,
2.044559000000021,71.44036139345539,-9.742379019206863,123.28134645597737,1.839181637489659,2.935828689225707,0.6265244645591528,0.460831747269214,-0.06543103433523552,0.36479718318485965,,
2.063758000000007,67.8653080865794,-3.4810227467033523,120.65099506144897,2.1944042902990053,3.067257375871172,1.3949506114214298,-0.5560801690155851,-0.8018138430616184,-0.5355312970905164,,
2.073264000000023,65.5825629459324,2.3216613283928282,118.47453190053437,1.4333017246330735,2.284515149387675,0.969977306366356,-0.7822069730061262,-0.9702775151644754,-0.5873386464870515,,
2.082597000000021,63.02051462803339,7.835185995220448,115.94435307377054,0.3974331371011598,1.7336873963392643,-0.04315757848040135,-0.7435792714527837,-0.9595940503897455,-0.6198165197272315,,
2.1016189999999995,59.65649478769657,15.775880625256766,112.2774953406386,-0.3221423118486244,0.7404271930054784,-0.967783475945918,-0.5500165374047669,-0.47660585181438614,-0.2496916245386437,,
2.1111310000000003,58.77167960497307,18.238875666492735,111.65130911276513,-1.043640189286784,-0.47102724147812614,-1.2816626401743327,-0.39367382390392325,-0.33881096349542666,-0.08702456374640502,,
2.1206470000000195,57.72675056015731,19.923810777237037,111.00205142411761,-1.6035660966743606,-1.76125592453429,-1.5198231551401715,-0.24166724019988248,-0.3044031852433575,-0.07511824075428962,,
2.1301500000000146,56.22185684458277,21.275254885069543,109.8442843581109,-1.9568721384822183,-3.066583424368015,-1.1237700022196444,-0.1540211793380979,-0.3564570168430111,-0.1393086124713493,,
2.139657999999997,52.501830502644154,22.355724064661064,107.43355862406338,-1.568696955162105,-3.9850380214515178,-0.04249799909991823,0.01810136691942571,-0.7220544940868043,-0.219147662940289,,
2.149173000000019,45.85196837901586,22.836904254027843,104.44931429697436,-0.9168379978855125,-4.533394004553252,0.8160329545527057,0.25435474424875953,-1.204554047709247,-0.2096924308073346,,
2.168379000000016,32.53937875408332,20.806514788624376,105.71808202297608,-0.007596008996606758,-2.5162490655810115,1.7794966497695874,0.6287882806802765,-1.082957514730965,0.8486631034723013,,
2.1778740000000028,25.575526372896242,19.443786438747658,109.83375083996435,-0.08191743750801522,-1.3297649557090105,1.1485444807310148,0.6677343187063888,-1.1573378759143864,1.2507880542265166,,
2.1873879999999986,18.91535148077043,18.967963755563535,113.87959915159912,-0.5018214669925654,-0.6971260348848068,0.4178003942172404,0.5656479719246014,-1.1262547986635998,1.202869342692447,,
2.215742000000006,-1.1513647141349546,15.929329875186575,117.06555287251656,-0.9764568329481551,1.204871722636579,-1.5402480241337562,0.7685278854819491,-0.9292690815957673,0.2143716118132151,,
2.225266000000005,-5.4739243667644715,13.039271089171752,115.3646277483479,-0.9674267603958521,1.242442312525985,-1.60548725316827,0.897122277522602,-0.48636356590103513,-0.1332755316054529,,
2.2442740000000185,-8.298613552291782,5.365967440303281,111.73863142701816,0.043055764868567346,1.8591470329820712,-0.9700137837196898,0.6734187352570212,0.2477105605674074,-0.26269718329471675,,
2.253789000000012,-5.798428262035785,3.144027908397708,111.12726029748147,0.5360133229879182,1.675910225629132,-0.5616212367581421,0.2427060218466402,0.6362633582525979,-0.06486811907757169,,
2.2634860000000003,-0.9351054703046892,2.0705134076968057,111.73712152287713,0.7076130068146983,1.7168915661562354,0.11770967356319788,-0.1408562642679018,0.9950284448001508,0.22911910937500937,,
2.2729920000000163,6.676582824341879,2.230622407901729,113.45792338930599,0.4934458647425041,1.4963256138470284,0.849087090216195,-0.5951669415796051,1.4092251981479138,0.4883834531524929,,
2.2823250000000144,16.52004786354522,2.899434161384089,115.64459790608845,0.3176186518338757,1.223298552532537,2.126912453580794,-0.9160388756701735,1.7547142224360985,0.5787908410485932,,
2.2918280000000095,26.6473309078214,3.1550391849315003,117.09925543652253,0.6957806452698578,1.5488528150303604,1.8386984853926118,-0.9230531863736265,1.8098078545919474,0.405736655296441,,
2.311031000000014,47.620971460966075,4.892084527077035,116.99445304440009,0.619495605561397,1.8190223229812916,1.2728120639326672,-1.2157206297708678,1.718595137228554,-0.35802984850836617,,
2.3205499999999972,56.16048686225576,7.866259472467287,114.37857518100799,0.2618109638726223,1.270837137120532,0.19376319645100704,-1.2727485886398866,1.2791754696976507,-0.725415763168794,,
2.3296940000000177,63.06989036667221,12.222527823610779,109.71339394609844,-0.4718386653871527,0.2789718600518682,-0.7886109428035999,-1.3101403526268929,0.9538259321422766,-0.9441885794052621,,
2.3393920000000037,69.07280081494144,17.423711193681427,105.36684908519543,-1.2965017301964008,-1.3415531821238162,-0.9713928605404177,-1.3365848316516344,0.809988161935219,-0.971423869695783,,
2.3488849999999957,73.69947631310116,22.395326860697683,101.31041479612199,-1.8057758099388603,-2.9932871211191228,-0.7586016521503026,-1.1675359523721398,0.6268776059772462,-0.9956197941741177,,
2.358413000000013,76.41424345366701,25.97933287917122,97.86552894314192,0.1121055504811492,-5.450995513117125,-0.4593180745686541,-0.7927112490726512,0.3699297831920511,-0.9256740411571065,,
2.3679120000000182,78.21842529706431,27.223229959276072,98.00578648795805,-1.2713937104951043,-5.290779362783029,-1.0519773002545278,-0.29406841616697776,0.2855638412236181,-0.14715632195638562,,
2.386938000000015,76.62642272826534,24.83407547786849,101.07777621962181,-0.4007210750979038,-1.4331645923436025,-1.6017651611983765,0.4713509664321034,-0.34140267768614024,0.6071340487623165,,
2.3964440000000025,74.76884067506435,20.837597493321237,102.97686316866088,-0.12210977772321704,-0.5801211249736012,-1.0797576447949195,0.8516804462405994,-0.16678016339415527,0.49864470212403095,,
2.415647000000007,66.96694031652561,10.56968924694204,105.95206177711067,0.542511804045404,1.030560644300702,-0.325117953931903,1.2047507989950814,-0.6178839832127021,0.5480443833272447,,
2.4251620000000003,62.980989129767906,6.725058920635467,108.31717117227028,0.5148953513713004,0.31904405024867216,0.2858427191846663,0.9674881836712825,-0.5209951630056346,0.5446575478777421,,
2.4346730000000036,58.60279554780038,4.241631654865931,109.38346774622549,0.8211219992567885,0.6351496933741354,1.111216385606575,0.75309373475364,-0.6579024302733701,0.2354899496433493,,
2.453685000000007,49.930559769494685,4.046885025226074,108.502222044077,0.6767318119719702,0.6179199711619526,-0.10238767804076933,0.12946933020666992,-0.6922460654412592,-0.216320830277916,,
2.4632100000000037,48.038611905275836,4.664610949307463,106.75076395925234,1.1234075019254144,1.203676494126039,0.6369201635892763,-0.0006765240842489186,-0.39108705523164966,-0.39495375803401894,,
2.472537000000017,46.666362385207684,5.0342681883128195,105.38082941364674,1.4681081848860726,1.566826649038766,0.1785014392880683,0.007433675984244421,-0.27722499865147937,-0.3116391048663489,,
2.482040000000012,46.87500377012405,5.121808276520733,105.55932326875116,1.7949145764471712,1.6482977460118717,0.3186171385254416,0.0,0.0,0.0,,
2.501067000000006,49.16334090497079,3.732535313340695,110.21111172324495,1.467711203676024,1.530027971993448,0.1742437279583059,0.09612717547680864,0.3000083007766621,0.5810597271815241,,
2.529773000000006,55.11163608371401,4.433736241245507,118.75918505015,-0.3247899146415427,1.55862696767846,0.16350641194079063,-0.37122030356133084,0.206703782736481,0.383589843534379,,
2.539110000000022,56.18694612901097,7.3343247191689835,119.59357442385932,-1.008792733058951,1.889950341917326,-0.0515842049530994,-0.6123890797883412,-0.09055377682283162,0.1442091565357616,,
2.558121,54.43387430589638,15.637176735464118,117.70184295728136,-1.9105471052905152,1.9899251727251681,-1.169601184590064,-0.570363196838575,-0.6674682301586694,-0.40530551043412594,,
2.5676440000000014,51.225762059484325,18.779594631680787,114.86169403182431,-1.5313565804177647,1.9198288794805067,-1.211408896600408,-0.2859952795793066,-0.8270334011606695,-0.5218427812345119,,
2.577159000000023,46.7280323624483,20.344614327832534,111.60892836339305,-1.1526709883891963,1.1120349950290165,-1.205582828984944,0.054340772496713464,-0.8996984584874764,-0.4799760642649176,,
2.5868619999999964,41.185414720388934,20.150920078563555,108.42481997141907,-0.6665140908618234,0.3361853508708078,-0.5575655931850062,0.4007820357801992,-0.9595540082587479,-0.36326442168263334,,
2.5963590000000067,34.33377341849319,18.785548242214116,105.89658395605301,-0.21152061610152909,-0.3685799336295233,0.3944431507982204,0.6521014127395768,-1.148282375665777,-0.14925666755692152,,
2.6058760000000234,26.22649009818654,17.104022335922267,104.21103981559676,-0.09910774889782281,-1.5195781737491405,0.7232243408682923,0.7370953525144142,-1.3960924788588964,0.07071497428287087,,
2.6153730000000053,17.417686544169154,15.434278827580664,102.99572721237587,0.011035961315525903,-2.182984530035911,2.098959414857767,0.7357606286378393,-1.5584459908735837,0.1608272126771554,,
2.6342070000000035,0.3191161702643769,13.134792425465044,101.73664858510499,0.00558673320453684,-3.2195917406890864,0.6538460265562288,0.5059130726612151,-1.4587811631360363,0.22509750311521862,,
2.643714000000017,-5.963818177570737,13.516662563365676,101.73123623697181,-0.025626332578010873,-3.6365476451237746,0.05789809519391046,0.18696826101926686,-1.2059881563795807,0.23216490100473017,,
2.6532370000000185,-10.900602017980134,14.766357847015328,100.99946795573457,0.4165417527866108,-3.1471147097493226,-0.09139186826330253,-0.04484895717848886,-0.9813039673172779,0.06836468488386918,,
2.6722560000000044,-13.576924805617118,17.55213450775806,97.53239013087494,-0.10673381764475959,-1.5088100026675966,-0.28332749143538194,-0.2433441181051564,-0.11176823987265316,-0.3214730360254525,,
2.6817680000000053,-13.073212415493044,18.770853195258066,95.44897555073014,0.49048879562194736,-0.37773375833333755,-0.71631402303012,-0.24175873195131634,0.07505928441736247,-0.3688477538596773,,
2.7009630000000016,-6.49921047576229,20.72190675915805,93.2415465989615,0.5520794538228196,1.123299450892432,-0.06677720313673656,-0.19528581257786282,0.7666770618603469,-0.2639043010360945,,
2.7102990000000204,-1.6188515498320262,21.193814887949287,93.81011511648497,0.960262740037212,1.1124519889497362,-0.5541366900287681,-0.1324316667297367,0.9111800537790018,-0.06191225129964833,,
2.7199930000000165,4.675908598546374,21.24821746480723,95.63985862305903,0.6204697898833162,0.9181725559899119,-0.13129140213507132,-0.0879271595968143,1.1756904687217133,0.09013415173742906,,
2.739013,16.69919743628808,20.044596588405664,101.24899477379594,0.6573041393180319,0.8479380400521901,0.5656134246329964,-0.021966516926375572,1.0531751007298478,0.3663943683495794,,
2.748523000000006,21.69594901990707,19.748011241801347,104.2171910564708,0.676306993814423,1.213566875396623,0.7533813109081028,-0.1354145532532532,0.9368769458448555,0.4103305066593385,,
2.758037999999999,25.65937296614865,19.963557621879787,107.04205059919326,0.5073094774383617,1.627199188890832,0.35366273962379247,-0.2313967123494469,0.7138777906117484,0.439976533164829,,
2.776877000000013,31.51776620152756,21.370700169076642,112.60363003286022,0.045921915545244635,3.48903129887981,-0.6023471686077017,-0.34455164330979327,0.4450561321017151,0.43855164643720307,,
2.786375000000021,33.733288932484385,22.16438000082778,115.34195395950785,-0.4570841543739083,3.5273249016125736,-1.2967251093645813,-0.306941583944697,0.3174175344538539,0.43801141266839233,,
2.8053969999999993,36.7674220069782,21.828642306361385,118.30705833358654,-0.6613144326681629,2.9193156806260876,-0.8389156627832043,-0.03142749523543611,0.27159470503000765,0.10853423002800439,,
2.8149080000000026,37.10913769974026,21.099342829661403,117.9589362701178,-0.31859626135456376,1.618494568624371,-0.3992689214219859,0.1027204118414655,0.12960498548262747,-0.09829900115307684,,
2.82462000000001,36.82971955644064,20.41294920117545,116.1712167919887,0.07858708741427471,-0.0188631431029982,-0.13862683975766754,0.15023058220049784,0.020681841122189574,-0.3588892389236698,,
2.834114999999997,36.743363244141364,20.334601031529047,113.19108185351523,0.11639514435881755,-1.6701612032761268,0.5595668539116182,0.025326070038603127,-0.003674125763007195,-0.6172544984387075,,
2.8529640000000143,33.406654471199055,22.45526217829413,104.89125188681436,-0.436395417030995,-3.2628388591446837,0.6752241519877247,-0.11491633580326613,-0.5228937094924049,-0.7417259744316346,,
2.8721610000000055,27.704613648877245,23.925663976746858,104.60427758639388,-1.0718174340062414,-3.1978306378663612,3.669253448478561,0.09004227369677405,-0.6499372592619442,0.47346853511539316,,
2.8816690000000165,19.898771515719083,25.48728789806697,105.44842646195512,-1.0718924455886045,-3.547598596917056,3.1416365870198604,0.08017759999717011,-1.4475812485069446,0.7182669111035043,,
2.891192000000018,8.868560620565825,27.679196958539176,103.8561539055581,-1.274124799501144,-3.121264666977155,2.657942381112169,0.0980755464998242,-2.0155918146082725,0.5181281366215793,,
2.9195330000000013,-30.734706876554608,22.552150380102756,94.69272399936071,-1.4280187333753893,0.5773579615598182,-0.5310362267740882,0.9057708890197226,-2.2253774886849533,0.5336550228324751,,
2.9290459999999996,-41.38780347706098,19.278663848665825,95.33869174141346,-0.8791615496665172,1.443780740499167,-1.4858927537472049,0.8456178502310202,-1.91548481274141,0.7790222990299255,,
2.9386340000000075,-50.0088554274256,16.984323885256117,97.9850855348341,-0.149735260416075,1.9218539096677814,-2.278516566316281,0.6616032315926199,-1.5649076482333164,0.9827439665097164,,
2.948153000000019,-56.923577666825345,15.934193988816391,101.14990004498259,0.7549881095458855,2.029416331588574,-2.676794448101359,0.43643347075357564,-1.2648356131447902,1.0295278890248378,,
2.957650000000001,-61.89831581640652,15.395076401773496,104.46521616957064,1.58624392596409,1.7581510269722624,-2.6928945228978933,0.32521054723215276,-0.901089816391631,0.937573619758914,,
2.967088000000018,-64.6348077476413,14.192506656113837,107.82982733906529,2.676780302356676,1.7875731895798435,-2.831290410604879,0.3850180305871032,-0.4312726589677485,0.8192683484886731,,
2.9861099999999965,-64.23103634367867,9.1897531887011,112.04241826868133,2.5090921280278473,2.6597624337135883,-2.375746011769844,0.4444580394745437,0.37851185203075954,0.23746536037123586,,
2.9956180000000074,-60.470157458134096,7.099701303532799,111.91258824948572,2.308133643156709,2.9217927947039133,-1.8467186022045645,0.11535901152825588,0.8583489021683998,-0.12652845757865847,,
3.0051440000000014,-53.21220355078623,6.649704240883333,111.20735000275936,0.6927058773151448,2.4918944180955584,-1.3288594491284864,-0.439126081438889,1.3854298985506333,-0.3100482202390313,,
3.014600999999999,-44.07609493338357,8.737429584636027,110.57192194615631,-0.3022373653008168,1.9187446595152344,-0.701229538465291,-1.0278918580653822,1.5556462063269396,-0.36894469583628703,,
3.033666000000011,-22.546092668619192,18.445473835628576,113.23163502901421,-0.5393230327148447,0.01560687557457044,0.13347916636165172,-1.7659630224487326,1.622110911030402,-0.16255717471948303,,
3.0431780000000117,-10.748951060292116,22.806367589746138,116.79770262385014,-0.7621976952394912,-0.5684097418059115,0.9680245643057178,-1.7147673921406703,1.6451221741273956,-0.1261311579770324,,
3.0526839999999993,-0.38555806106547186,26.1303224798062,119.83346322046087,-0.6671056454989599,-1.028324991441572,1.625975306734855,-1.4721856543497402,1.3563940723943548,-0.2607143990341036,,
3.0621900000000153,5.819917199875706,28.719720735290288,120.4764347385349,-0.5325998480118057,-1.401852290537352,1.9164084703196564,-0.994288042955654,0.7010901175549515,-0.4523048298778654,,
3.071891000000022,5.736938519631953,30.881045550280064,117.64675459023469,-0.8808048741809814,-1.6993363404301982,2.405646659703525,-0.36321005853996047,-0.21584029155295845,-0.5669148183751599,,
3.0813960000000122,-1.0180712846348907,32.26680219522927,111.62173592463758,-1.8940169343549154,-1.9732099736617164,3.670831953410909,0.2375811863873823,-1.1560661439575446,-0.5047324714228992,,
3.100420000000014,-28.24947338187062,27.389282883094666,99.58338429693806,-1.531842580260332,-2.565273206522873,3.482586786180374,1.2910119645927125,-2.353716508207318,0.4962515267226483,,
3.109932000000015,-39.725147534051125,24.5604497175898,99.20545670798677,-1.216757295922838,-1.6111572080089132,2.2863130044030426,0.9044884109721363,-1.9368093462681033,0.9310171902860311,,
3.1192720000000236,-49.70178430083131,24.486413786083457,101.32461420469055,-4.616378564520868,-1.5492006047643827,1.1901654265404795,0.347716978948242,-1.7760325251111564,1.2543673884016142,,
3.138358000000011,-71.54620287310966,29.961197884339356,105.04854892742354,-0.14896194473588056,-0.25470954462598977,-1.5018008377878695,-0.19812352155730992,-1.7781832997559328,1.1956968642781167,,
3.147863000000001,-79.34646083631559,31.9853791175049,104.77100697888753,-0.5304646929470597,-1.1870394858224218,-2.4790396576278666,-0.04237526533518325,-1.3858989466996972,0.7531483449162483,,
3.166801000000021,-96.46229613981475,25.880582475750074,103.95276240729272,2.622456454998985,0.5937575580094984,-1.8317045016758289,1.2904539358694969,-1.0873936183963855,0.6618269047152442,,
3.1763329999999996,-101.94626229844712,18.237086251849863,105.35836192576338,2.424972633809633,1.1961816975406678,-2.279593725526611,1.7381417957766563,-0.5856022237121454,0.6699780413459435,,
3.185836000000023,-107.87070294854654,9.699379358415296,108.24896518974887,2.487951396262555,2.6068423474160314,-1.5575418497906819,1.9677942176822716,-0.5989953083822603,0.8534697023943715,,
3.1953550000000064,-114.12901636006535,2.5165565577129794,111.88823390310665,2.184069209406171,3.897338616426777,0.20170637758763665,1.7759151105220574,-0.6697082580276069,0.8488848755737692,,
3.204848999999996,-119.59548672896224,-1.534636350549275,114.88208494903103,0.7293508200481292,4.356633472460212,0.20604791148828688,1.176035599540346,-0.6761806104396797,0.5877291455643966,,
3.21436700000001,-125.72562004365189,-1.592236927913098,116.21863256430848,-0.18879906676414246,4.778666970361265,-0.013499945176802086,0.5376529245422453,-1.0959564927413,0.18686461847554284,,
3.233395999999999,-138.06217864887512,8.804132425964369,112.55266911974519,-0.6795803245230275,4.21428394497207,-2.056122783496002,-0.7185823708419363,-1.5959486766722715,-0.5885934231775323,,
3.2429810000000145,-144.70155656993578,16.222745326835472,108.99758040844875,0.037628853176388366,2.382352264958765,-3.09339783622026,-0.9185938623503727,-1.7426710267538748,-0.6333650922670626,,
3.2523079999999993,-152.22597846237667,23.10828707168742,106.16357094861795,0.6048163775527748,0.264502664079634,-2.5375058219297215,-0.8755167758608063,-1.7702639210481657,-0.28189271374584085,,
3.2619200000000035,-158.1789461060781,29.03865485993859,105.62928124037818,0.9331960233063186,-1.8451079911096941,-1.7659602352009949,-0.846127626994342,-1.3549633611348106,0.21851257238479666,,
3.2811290000000213,-154.17110314731823,39.09398863642644,112.93216537080644,2.4664504633872846,-4.797726787588252,2.9996331789148667,-1.222217304732649,0.5496627434246194,0.36658018163993167,,
3.2904470000000003,-141.40734927512534,39.79409271922937,120.42975578282496,2.610768065230862,-7.717391633109787,1.8580042303115902,-1.0207030163370236,1.7068491887320476,-0.1220042566964516,,
3.318993000000006,-101.99674037039908,19.57104157499282,121.80966867638257,-2.9181492115401078,-4.958219564836717,-0.6227894404329913,-0.022636683017913908,2.070698254770864,-1.9190304416305488,,
3.3286779999999965,-95.53956219466913,19.0423762198111,117.28989580044409,-1.1308122789206438,0.1502245187269094,2.3083417691855543,-0.510968372861717,1.1248082701063966,-1.322862012633005,,
3.3380140000000154,-83.64921770437897,22.930020227015483,112.49096778482027,-0.9474963504312389,-1.080225808600204,-0.9656429190967688,-1.6385818116212583,1.703310759536929,-1.8032352601399841,,
3.3570330000000013,-61.93622445767207,32.315067051105814,109.39148772090091,0.6242110536449059,1.5071675005870027,-1.9337601147661356,-1.3210339651347016,1.4361680671250723,-0.9302624940950621,,
3.3666139999999984,-47.059703933507514,33.49895625646098,112.74399170549341,-1.035592472480849,2.4918942960717287,-3.4096677674892244,-1.1109759879627408,2.259268782417346,-0.9495064368025842,,
3.3855660000000114,-16.107343668903752,27.812512935065296,117.19648559851589,-2.284381824411619,3.890107475891643,-1.5815577566660286,-0.37728336109250593,2.7421249851049945,-1.1889512583177182,,
3.3952529999999967,1.6588888896091503,22.22747421486217,117.41192152380131,-3.3221558091581693,4.891058586983394,2.8022382986436853,-0.48573098144716825,3.3825605985829847,-1.4697540171207033,,
3.4045770000000175,21.06010181047241,18.785139615357803,116.96612442912387,-0.6154805642417936,3.89383760325219,6.222964073646357,-1.0496582465634412,3.55582375431196,-1.459847110235284,,
3.4142670000000237,40.70655871507334,17.392319206356976,116.69007033914411,2.745408324668369,2.1161027727855197,5.625367387861652,-1.4381341603542794,3.466429670626407,-1.2886494899578038,,
3.4329320000000223,82.04941733862817,17.817833254041197,116.21267744457762,6.361520276157228,3.5754702163520844,2.7464963849680712,-1.9202090327701136,3.4392140973502707,-1.1999433486509037,,
3.4424350000000175,101.40109167542758,20.29413339025639,117.98929778840524,4.871661312904952,3.7573806656630113,-0.5762201342531299,-2.112795824321677,3.034956803603833,-0.9238789462013481,,
3.451953000000003,119.47458948916272,23.538689501936826,120.0138532669124,1.8342836940242284,4.267540336663052,-2.819483011148978,-2.2007944950800846,2.6212272613153416,-0.9575457628564686,,
3.4710600000000227,154.7653503896026,29.703183852220405,122.71086163905979,-0.8304234309519309,2.46854972666388,-2.5641785141378595,-2.2272456884171166,2.316050299478048,-1.572725896680135,,
3.4900060000000224,-165.6173566847658,40.695476555628,118.00094999750151,4.52812258106677,-6.467093651123369,-3.0782980728337623,-2.6293608561914428,2.1945795923580755,-3.0053303229119597,,
3.4995059999999967,-141.69756461948757,44.89277420611772,121.14405972416415,3.2241076548343277,-10.00693263828943,0.02023637727448149,-2.4631019174448676,2.6529956628877613,-2.6270883827313716,,
3.5090260000000058,-115.07283025429035,37.80059391964411,129.86691560834797,-0.6701095188837368,-8.07729553511667,-3.0698344747191117,-1.1951362129630567,4.067290533762131,-1.7916586968847377,,
3.5187099999999987,-97.42179597934955,24.201147469236428,125.07630507245999,-5.801930620982567,-5.141662391514837,-2.131508701679516,0.2939460866817713,4.0696909979296905,-2.7657560913931993,,
3.5282339999999976,-83.52841755766657,14.604871572840636,111.79247325844517,-7.065253986949984,-3.598666200677581,-1.1767867135845709,0.434714702830952,3.243128925123418,-3.5586392795830437,,
3.5377360000000238,-72.36971354883025,11.78507981857454,102.41330425609236,-4.158356144050437,3.467841788501446,1.3760396430953368,-0.09579258829185457,2.258382389363342,-2.3745119296255623,,
3.547194000000019,-57.063856419416325,17.32419069436618,96.33960254187265,-2.9799991359458042,4.625517444391455,-0.5536011316256815,-1.5634972124402526,2.7602242203283596,-1.9745513485358601,,
3.5565260000000194,-38.55236130748964,28.398343792841505,95.98883798691317,-4.5378596713393495,2.8870549181998535,-1.0275003203765596,-2.5416791327285844,3.173205602609125,-1.5122432219854018,,
3.5755880000000104,14.562147493949936,30.74818835968438,122.53038937559742,-5.421771047871721,3.8455610933064897,2.4027582441548856,-1.3650532600754128,4.855679818745322,-0.1800834643995796,,
3.5852859999999964,39.36738284730301,19.700095296096418,131.45072344996078,-1.6912964473298249,4.089816500531243,7.208790494016519,-0.9647100480735997,4.902607929202172,-0.3745779302303776,,
3.594966999999997,56.41446642456639,7.505474157691034,130.72180109986274,3.8745771696748683,3.4933211756056024,5.462982160529567,-0.35949508559230675,4.103053909609306,-0.9613352114418788,,
3.6044760000000053,73.36952018876693,0.14922386397813855,123.51166724230217,6.010997804784358,3.0473395299799035,4.13454945205856,-0.8852795761663782,3.5926077012134665,-1.6698304054600088,,
3.613634000000019,91.6096734769255,1.0470214186731235,116.53145733064407,7.68543263281487,2.1922187396321906,2.6944844403022334,-1.9904083893940283,3.0779620180840728,-1.4347542246159968,,
3.623139000000009,107.98448667164979,8.723344541444424,113.42287550006868,6.880609962633746,2.729521066416926,-0.10537483624064778,-2.7743444526350634,2.320695859768556,-0.9063994275578341,,
3.632661000000013,123.5801946760919,18.778619897138107,116.29695356181276,4.488884382362576,4.13848138765761,-2.9329853955778584,-3.1027300491067384,1.913177439894034,-0.18064536469351064,,
3.642325999999997,139.5272190232458,25.949939188616526,125.1882287040646,1.6657718981673548,3.635188412923166,-4.588329870878042,-2.7475346510946363,1.8064109481964534,0.5466292600235156,,
3.6517670000000066,153.7447555138077,29.634569374373527,134.21731976560469,-2.771600825639009,2.1696252931484916,-3.6772127963184618,-2.185087338176381,1.4637149247877004,0.46894734730376714,,
3.661194000000023,167.6146838339964,31.455492005099075,138.50440120306268,-4.08372835626774,1.5888883606096242,-2.8375568805232074,-1.993244912590957,1.3830118328676029,-0.5573361883985057,,
3.6707780000000128,-177.91151344664468,32.69684804028379,136.87902683962722,-0.9591343131969942,0.3637039752329557,-2.7534829419685067,-1.9966244502420243,1.4685036255986221,-1.861968281692286,,
3.680209000000019,-164.2200149364068,36.21646422128757,131.01621661916727,1.9529742519120776,-3.4271433594037166,-1.4448287987070227,-2.090598654280193,1.144215637507797,-2.718292027016167,,
3.6993989999999997,-131.06618946400258,42.68605677769971,127.82313245587397,2.478361390055264,-8.624426260123842,0.7044202574192299,-1.8284542627659384,2.1239059872157346,-2.163854565743875,,
3.7089339999999993,-114.64133899998411,35.5549448629215,129.56529183442862,-1.8319380810885708,-4.477981185988515,-1.0362919733241125,-0.496857092492009,2.8874135724288394,-1.7233021958521266,,
3.7469660000000147,-63.45035739005822,24.00238020527515,105.98863463572103,-3.4919436166672875,2.012089956107685,-1.4505473170551182,-1.5367494629839813,2.3036055342072808,-1.9718844403430906,,
3.7562890000000095,-47.500627179018416,30.026250433357774,106.02818303828207,-2.646445293990314,1.596418935174184,-1.546503217223662,-1.9281971728971796,2.41621242148408,-1.4425532871055473,,
3.7658070000000237,-27.355960487441187,33.27281638592784,113.12656228584326,-2.5999144124191624,2.1869451761704166,-1.5953596350960377,-1.7456422487225027,3.026035972765756,-0.7096323618124102,,
3.7849930000000143,17.782764431917627,25.87079221414373,129.56488742902206,-2.3691568016152855,2.342571423791064,4.385148659707309,-1.2522646462142453,3.676231702965183,-0.7183171033118403,,
3.7945220000000006,35.06619975799887,17.95386751816237,130.44979206092123,0.21973727785764263,2.7958216124636017,4.173683484390852,-0.857924630873092,3.4780652245724544,-1.1287072670693972,,
3.822862000000015,87.24170017380447,14.055391751484892,118.88511490420224,5.696617034025284,3.899549508081699,1.14640215679118,-2.1797504626974713,2.498775097171035,-1.4468133468500646,,
3.8323819999999955,103.96944655370666,18.96215586704862,118.45599510316359,5.372929288336348,4.189067540063753,-1.1681383566138863,-2.405251565358689,2.3495176939518903,-1.0483277083143336,,
3.8418810000000008,119.37987765422972,23.25187594750046,121.43796641365076,3.2425286326677387,3.2985682786924344,-2.9722011286542593,-2.186391831914965,2.06550193980393,-0.5267779849329964,,
3.860994000000005,144.74337708448263,27.483805524403262,126.06179401083388,-1.4143729385213528,1.8510107478564952,-2.6022794930113635,-1.5140360131817177,1.602821697296744,-0.8380477660611106,,
3.870418000000001,156.06504685189452,28.809623530213045,124.60953056912882,-0.9832292407701737,1.0328016185840168,-1.5605024646558279,-1.3854555910634734,1.4757811552728202,-1.3622801933023327,,
3.8801260000000184,167.2521789247466,31.892685838274176,120.74868158928851,0.00766531627353649,-0.19132274483661474,-0.47757999298219767,-1.5765352195986306,1.2957283044031704,-1.9041518011191099,,
3.898955000000001,-162.865042868937,43.97566703377823,114.82456079498844,3.5576265681594608,-6.768107616618581,1.2826963254368828,-2.2712020298532702,1.709217020810935,-2.4432718572604215,,
3.9084640000000093,-140.61431424760656,44.300724731718304,122.49915321617559,3.157768706570152,-6.836972301996634,0.8757813684310588,-1.5972359372759586,2.7758006250995204,-1.5724852519555306,,
3.9276690000000087,-103.26645512194568,20.337480328745315,126.16591728280368,-5.097590241879763,-5.244375175402023,-3.9858194265008584,0.2923292380637898,3.9879609738133786,-2.281498659152026,,
3.9371880000000203,-92.96557361259664,10.751442901826092,117.13094159512325,-5.92295878056194,-1.87642143402458,-0.8227680679644486,0.5868094601729122,2.7119691714239056,-2.3437565055034386,,
3.946686999999997,-82.91855550143785,8.56158499615572,109.62075657761994,-2.667844247690852,3.599008274279738,1.2607025852272549,-0.38244949747488577,2.0057086965090702,-1.8280126764859934,,
3.9751090000000033,-33.006904891854155,31.011378097492635,112.58702227193528,-1.457083247898076,1.800570124488147,-2.8360028016135375,-2.388749230248275,2.897799147093651,-0.023129618391197745,,
3.984564000000006,-6.517749213739771,30.437649315117252,126.21264398379462,-5.323103117060301,1.1104587330584985,0.6116195247676226,-2.127688044728182,4.027668967903632,-0.024215350792617513,,
3.994244000000009,15.29312476662734,22.774526756413703,135.40345450783656,-3.4218003121759315,2.2478023308138018,4.895429861532511,-1.400285489590581,3.951931141533931,-0.14733562534742153,,
4.01325700000001,49.03715950199549,5.556387339023346,131.76637072722835,2.0754408981766903,3.3059464693836738,5.912663654700096,-1.4265596103423852,3.517856023722493,-1.5245037423472199,,
4.022776000000022,67.4406033323106,4.541243175260146,125.23364175666696,5.05280400475807,3.5188641798083022,5.0288732361227355,-2.1325756687146855,3.004632774511688,-1.6335874598139084,,
4.0416079999999965,102.96430076852407,15.17671638446192,120.53828823078517,6.439116044502906,4.354309060258462,-0.7057403966614355,-2.913205791879233,2.4391014653392564,-0.7767226861763444,,
4.051128000000006,120.445697926726,20.261099445874578,125.13828567389278,4.550519259301676,4.045162341541681,-3.147759723728359,-2.6666033032975043,2.2509548037719416,-0.16037958562194646,,
4.060714000000019,135.08242948851128,22.75484163301982,130.50898664046463,-0.02910103208310348,2.733011287724516,-3.944948081904772,-2.0751239429533626,1.8445614108183326,-0.010750762632968668,,
4.070238000000018,148.76818819720128,23.12278136752727,133.16626262470962,-2.5608556255086667,2.5256760505513682,-3.1408022845612766,-1.7498857645683736,1.8264167659390476,-0.5418282968618524,,
4.079654000000005,162.15965909972735,23.1707216510131,131.4922134494112,-2.022782241561982,2.2385101553299336,-2.2675962575994,-1.6810166990125561,1.8136325568934895,-1.3889783293222135,,
4.089242000000013,175.4266073832328,26.06482615129783,125.70671271457651,-0.33393073399727846,1.2353859079716485,-2.4029327495432096,-1.9736791976362564,1.529110909508429,-2.2594736266712085,,
4.0987480000000005,-170.30903088495452,32.54908733223503,118.24587181231189,2.7205170355225246,-2.3865343839772146,-3.683777206179815,-2.433173266019372,1.4360257560184075,-2.882664780786308,,
4.117704000000003,-136.14990681399834,44.10412485781089,120.58612229885316,2.0174022164825796,-8.414727905916116,1.0721825657113093,-1.796475920537303,2.2943886556379405,-1.206173648443005,,
4.127383000000009,-114.40091340461343,33.76844997872693,129.24176680655412,-1.006673231806468,-2.5563265233246013,-1.623606865043553,-0.27172622806854324,3.952697588676157,-1.0181349904009704,,
4.136910999999998,-96.55522101114595,20.269778173067504,125.14925651757018,-4.992211476621115,-5.858270303935564,-3.927186448514963,0.20428983115697025,4.176877656937773,-2.428795479703119,,
4.1561060000000225,-74.68934182199442,8.598276775014117,109.77208351746262,-3.0551097553579156,2.9886027839809226,1.52101910639937,-0.4666242275970942,2.2421441476322905,-1.7437072214155898,,
4.165251000000012,-60.1900604068007,14.253105746110458,104.23980861622981,-3.408866842717771,1.6399971270626674,-0.8830680621575755,-1.903363391658793,2.4049435979857665,-1.671221940031567,,
4.184354000000013,-25.74620162544221,29.563915036613384,114.61754879300517,-1.931273955108066,1.9202005683938947,-2.927328900253231,-2.4158242169929167,3.052215150834205,0.03625459066884597,,
4.2034869999999955,22.60981796888878,20.8907211088096,136.81694258900046,-2.6661999929297724,2.965171205831372,4.5750077329619785,-1.4656181164286335,3.975343269107506,-0.06586497270843188,,
4.212983000000008,39.937596325969345,10.441138152466062,138.04453220413248,0.46683560212480724,3.3801159906297307,4.760922884968132,-1.0587524266161221,3.798222154516722,-0.70672805545643,,
4.232018000000011,75.61628826512973,2.210716106275669,127.75961714247842,6.321521619274696,3.021961176983231,3.866228345267929,-2.1497755958688973,2.8065370784354458,-1.3892594568541177,,
4.241337000000016,92.81490945130344,6.760300370306489,123.39415037344575,6.249842697229629,3.0326650417842966,1.1742689709061094,-2.7417586074405986,2.2690047351398084,-1.1478214690320474,,
4.260368999999997,127.97978415319955,19.796761519249156,129.91493051657045,3.6259179771038186,3.8142487771267772,-3.3503198948988873,-2.938192475665347,1.9101598440357945,0.15101737292589593,,
4.269957000000005,142.92835648693298,23.194821102579642,136.9997376617676,-1.0269504161619034,2.55912215555825,-3.7945509591837117,-2.4176502261925865,1.5506141035235508,0.309345763523839,,
4.2793880000000115,157.19764449042398,24.097459685303562,141.59431818480988,-3.6133974196436025,2.0266268883565273,-3.0159949969399737,-2.1127764536883866,1.5641139950351637,-0.23222109015386028,,
4.2984810000000095,-173.4373063049793,27.563855642138154,136.42596742067994,-0.668495429466686,0.8882881755796791,-2.60765825087297,-2.440422751776203,1.29082041940619,-2.2853662754836255,,
4.307918999999998,-157.51109937520016,34.288067514980575,129.3804705165176,3.1226383768239447,-3.4688255904581697,-3.48812482817965,-2.8619141247683473,1.0993769210742272,-3.0382532679175243,,
4.317427000000009,-141.0714416301646,42.43341815336253,126.0322972849732,3.949303104232782,-6.672647359608633,1.0292718104840424,-2.8755889300025084,1.0608034996189653,-2.7071638963187974,,
4.3364500000000135,-101.90150712033167,32.28392420784821,134.1703392800802,-1.8711215374436607,-3.806452177781322,-1.9074807773310816,-0.6528550312760876,3.551429311429367,-1.9490022325244112,,
4.346136999999999,-87.42106487779698,22.469666010253242,125.72322225254985,-5.822814307484927,-5.603423217530702,-2.778945644361853,-0.15837560485492672,3.250163144238347,-3.0074223619964777,,
4.365166000000016,-68.05544303206959,16.003967184559347,110.76776560245034,-2.123440769301661,3.960468482356776,-0.16919253175463875,-0.8125261661708554,2.056065174224614,-1.772532821725311,,
4.374484000000024,-52.305946147148305,21.722252367496875,107.96625401962137,-4.548388091065128,2.182217005329131,-1.3395967561830335,-2.0564773493153066,2.4512003441728454,-1.574456239923963,,
4.3840040000000045,-36.412857150122136,28.80236244585912,111.8899406289628,-1.7413897020111615,1.8449890835883749,-1.6088200340662009,-2.296036189961861,2.2368407187485224,-0.5794487850935437,,
4.4032040000000165,10.840328210496294,26.72873118879709,134.91917814040895,-4.438778141191786,1.3640795104558008,4.163750818141953,-2.085463596562262,3.939398183831074,-0.0907249688990998,,
4.412722000000002,29.70679181765035,18.20898608767892,141.28118522712103,-0.39577243743643703,1.7784918361483408,5.19365510386535,-1.4687652876906458,3.596499180138752,-0.19482995631846767,,
4.422215000000023,46.12159910443865,9.352524855840214,141.00445898145298,1.890390583020609,1.9366107174393352,4.482905902660183,-1.3843631046876934,3.3819411830755413,-0.8509647624777331,,
4.441061000000019,81.34172612275638,5.890178701959676,132.64254216177034,5.933059483231494,3.660250247688103,2.8667678525149913,-2.6043008285704583,2.250543811462423,-1.1452297068772448,,
4.450566000000009,98.39048187040612,11.588670732187783,131.26902447384714,5.24576590095165,4.469775196823131,0.18605412357846793,-3.106989703236927,1.751942397051234,-0.8028639648194343,,
4.460080000000005,115.66471429051161,18.1972636337009,134.53970596591913,4.322920257237641,5.5338557132578785,-2.4738676872164116,-3.2471535843890624,1.551456983098288,-0.2492436645647699,,
4.469668000000013,130.80114705925817,22.66042307609531,141.24182167365223,1.1025709157874082,3.9666114754748336,-4.314265787933137,-2.712369185555684,1.2392532142460368,0.2691820107541738,,
4.479190000000017,143.52428779951438,24.546771673486433,146.9056881469772,-2.7298849501421985,1.8510666852619735,-3.601405753061782,-2.1209417505675665,1.057487821511416,0.10505350213294562,,
4.48861500000001,154.99894857713613,24.843373414930312,148.52685988751662,-3.588583240152479,1.4446598084731703,-2.375832821921194,-1.8073407374700508,1.05740823899381,-0.6388723744174185,,
4.498129000000006,164.7893926273837,25.700669015353256,145.30099102887436,-2.470959974420837,1.1479104781331417,-1.4318987259441052,-1.591787603533031,0.8186523576646202,-1.4823741493531695,,
4.517150000000015,-176.60826676821904,34.809802965632706,130.33646270771658,2.5142009078483323,-1.2208515844255445,-0.8758513194423384,-2.017157782516021,0.38534205785022063,-2.6582155711104223,,
4.526654000000008,-165.04346683117447,42.677603284394266,124.3807001742433,4.768704690556085,-5.004945165438351,0.6963517008959645,-2.361561951906758,0.4878011800518958,-2.637000562150669,,
4.536180000000002,-147.01324347198656,47.61566463127928,128.5408333378617,4.649679941990488,-5.908218788214024,2.277322639090407,-2.311986920706759,1.4693660252794618,-1.728787709429437,,
4.545679000000007,-122.36101464549509,41.27075552478936,140.2152398015996,1.202812972557765,-3.8205209972824345,-1.4863988491045788,-1.577312381234888,3.3901150875233905,-1.1363870248230235,,
4.555199000000016,-102.8216923739988,28.124016215197376,140.6770815762219,-2.739403356786943,-6.606568010042288,-4.741613915795803,-0.8324680727782281,4.071124082468449,-2.133029323974544,,
4.564875000000001,-93.05149649972479,16.35210041303308,132.66533242500435,-4.694238644000968,-3.8006314827187446,-1.610524635897176,0.2913334135029886,2.9696380314882482,-2.327818787098496,,
4.583904000000018,-72.33068631902776,12.547246551283486,119.1819049774891,-2.5504410089707514,1.8414031883507147,-0.8244312845899769,-1.689189861209619,1.950781663093235,-1.727853127448813,,
4.593229000000008,-59.429331658054785,20.212038101020248,116.64994505516293,-2.8424188666652532,0.9916998335076513,-1.6156707409517688,-2.5071063791430492,1.4886135268308305,-1.229013701637985,,
4.602834999999999,-45.06466461067397,28.46560033364003,121.14367398131027,-0.22400872517759285,1.7996493992482507,-2.668467772186105,-2.6996612860472013,1.5136720939267008,-0.2915550841273631,,
4.621938999999998,0.9946139140650544,29.853618665974157,142.9466651369599,-4.427706808736341,0.6630307529408443,1.908385538519023,-2.6141601247057618,3.1281390833197174,-0.2699663109426344,,
4.631459000000007,20.338168771143753,22.05879583289867,148.08279181388986,-2.452902372436594,2.279351112231821,3.6561965188645384,-1.993675694667765,3.2535147128490114,-0.6880389607048383,,
4.650483000000008,58.26622367518389,10.647865627731958,141.51435517620197,2.751735578926405,4.202697914036873,6.141028363642922,-2.635390619068923,2.771657789203177,-1.848557411231013,,
4.659993000000014,76.42825369532147,12.603828348579652,135.99273197047256,5.0582444353311224,4.906291581622066,3.49856765445327,-2.9412247640201623,2.0591529514328597,-1.8423496882505528,,
4.66932700000001,95.46973260345769,18.498761220193135,133.57628106852954,5.38384277307943,5.690164273813743,0.8146999024258258,-3.4262263063894802,1.7827741800761125,-1.5137830711078735,,
4.688496000000015,133.59659417313765,29.496843087392218,143.42249989089268,1.7797296551718025,3.794630057907333,-4.592295667672064,-3.0554843042664315,1.3932443816582827,-0.34752002672641824,,
4.698007000000018,149.9818738661904,30.90110017755892,149.53901200203202,-1.8262613449893361,1.9663568031624028,-4.653488926904256,-2.526559334884405,1.324050442145151,-0.43611858973696555,,
4.726469000000009,-169.92055415809762,35.076063625311924,143.12952067421645,0.33340859043260873,-0.16678674075229705,-3.1464572203024757,-2.1893340733456514,0.4957885832017748,-2.555406644113032,,
4.735904000000005,-156.80346644622344,41.90651349193095,136.55723840140627,3.08802142447085,-2.634641208850452,-2.6265877266289728,-2.4682010848032268,0.2879222526228657,-2.943916253507088,,
4.764429000000007,-94.26163635394748,50.36168650821245,150.355736882003,-0.23946641036149113,-4.374044162750069,-0.5438269078045486,-1.8520014196204788,2.462526331438237,-2.2387023615790524,,
4.7739329999999995,-77.27837793714912,43.929311701894584,145.8189104158022,-3.074707099744618,-7.237149209966194,-0.24957629436393308,-1.295772828367164,2.3248586781545044,-3.3960307870743915,,
4.802644000000015,-50.51200279372547,48.70950690886983,119.91712780688485,-2.4078215887105667,-0.42678777331811785,0.884869698049693,-1.8703573891284166,0.44274338391814927,-2.8216689688079515,,
4.812166000000019,-38.44717851243364,57.50117838591358,119.11989383123596,-1.6939831686924514,0.249752741197148,0.6069740038015429,-2.234376540453107,0.41006246134930613,-2.0967917140846772,,
4.83118300000001,14.86547456738438,67.34042577856907,145.18388701612463,-2.221018727343872,-0.13854588600568296,0.9820423305243282,-2.164841932527696,1.4252436855502923,-2.1961924567892375,,
4.84068000000002,39.4749256133247,64.82848306586203,155.85635747225635,-1.5468036756534296,0.8526826961947653,1.0819632549768032,-1.4599705334896589,1.428663604054596,-2.0761641538751374,,
4.8502129999999966,53.461106842733756,61.5166868820034,156.26733857468307,-0.43564581175856365,0.5799014717718715,0.5816655708183389,-0.8677237602125639,1.1238499395344785,-2.1888865860010536,,
4.869220000000013,71.19604962295888,61.52912926472622,143.94257280987938,0.6630924063544783,3.6660055209778135,0.8794621638669277,-0.770997193029032,0.17325664762840604,-2.6335127400222786,,
4.878717000000023,78.86143583266696,64.91980599929859,137.57293122169906,1.9423711616543275,3.077223558917369,-0.06038126689975578,-0.9624561408852809,-0.08864581143013349,-2.501886412516959,,
4.888248000000004,90.79701303325302,68.87480919251809,135.30878726393686,2.8278259332580054,3.2352168230968767,-0.2776950871722398,-1.2213304825013307,0.07579940305699905,-2.4642568923948662,,
4.907093000000003,121.01932281500285,72.25407534935368,145.30186937531198,2.327388982647023,0.006705175424933859,-0.9191840916376797,-0.7868181550819274,0.47059167931405416,-1.2742680389043324,,
4.9167830000000095,133.2417819481921,70.32580743735181,150.19510957038457,1.809284986383437,-0.15117667084140393,-1.0564777416093794,-0.4545027681798942,0.7369267386017311,-1.1200171657141043,,
4.945396000000017,142.1283815428931,61.36781490738704,147.23290361486676,0.27324059406379697,0.18927187746383095,-1.4172950177363597,0.221226208438892,0.4151504529075614,-0.3465343003703478,,
4.954820000000012,142.91424430437786,59.93622337418408,146.98335262456513,0.3840215903179388,0.39147353367684845,-0.7130577995492747,0.08548367586867445,0.27259451770758536,-0.03464059344986681,,
4.964506,145.0950747203839,60.076618497900064,149.53434269254404,-0.8955061357640477,-0.20968062330209442,0.6673992277407002,-0.20704898132421312,0.08287103629491219,0.2972270637384787,,
4.974024000000014,150.9272191171302,61.99007479796962,155.20565902083192,-0.8251901117806276,0.09648984187841869,1.1658402294925578,-0.6861614479139866,-0.08105052402509043,0.303607521679715,,
4.983359000000007,161.6390335161073,64.38850789041672,165.21768832379388,-1.0799632824141197,0.02822771083375693,1.4400486582299474,-1.079388928843799,-0.12239855361543969,0.3213263479418416,,
4.992849000000007,177.62391035654628,65.76904344031952,178.902513267231,-2.1882676670488057,-0.2284469484318254,1.8048826652028038,-1.377925724795442,-0.08045250374033489,0.09907884194414093,,
5.002386999999999,-163.96196236240985,65.6032014952457,-167.14942592035302,-1.5233752485968717,-0.1944806310384651,1.2399561642475296,-1.5168731544059186,-0.11628571164682013,-0.31510047169616234,,
5.012064000000009,-147.56366938475358,64.3656444282597,-156.7386953881516,-1.414973108302468,-0.9420794841908391,0.9974495793059572,-1.402768779921477,-0.19343923160905005,-0.679941362832047,,
5.021585000000016,-134.063656906581,63.11490848669228,-152.30236228261222,-0.3727306057434189,-0.7656883328128238,0.22015956528597966,-1.1969514393717569,-0.2911539906412146,-1.3922793180247526,,
5.050128999999998,-124.90288380309728,69.68821315309313,-171.68742561283946,0.20656718442932098,-0.20073537744466355,-0.12568151342154069,0.2742937355345075,-0.8512278940737016,-1.9577313153756186,,
5.059620000000024,-132.7662558694738,74.83612202441873,171.5062093018879,1.3069241634221134,-0.4052726673329232,-0.16219895066164325,0.46727041357545174,-1.031118027562042,-1.916149900034343,,
5.078649000000013,-176.9251406392484,79.93943730930938,114.62836160037418,0.6425427116902785,0.0030276922306659727,0.48196043639154806,0.39637729324206133,-0.8549964807101453,-1.369443568416682,,
5.088144999999997,167.11922059992696,78.72911047159866,94.15219401224687,0.9826028420079763,-0.5784183105617228,0.24669290476268155,0.3682526607558402,-0.5072975129158124,-1.0201557747384928,,
5.097678999999999,163.2648393689109,76.60952366947699,88.21295687126535,0.14095447865670857,0.14451020505106477,0.10114818942290249,0.4155726478890192,-0.15267398775410304,-0.4220560931863085,,
5.116591,169.5918779322191,72.1969761415934,94.70866659652431,0.22462966749923943,0.30877368778210235,-1.359946213586243,0.4262629866033031,0.22986837073627694,0.31826617096539067,,
5.126097000000016,170.76189561725127,70.23630920423186,98.6469487448596,0.34264482017362596,0.5241590774532102,-2.0789099804093274,0.3695558799813367,0.12195978822870127,0.6890234758073192,,
5.135601000000008,168.69038980688603,68.98091938572925,100.76588297495596,0.8044202560852013,0.4899143409547408,-2.7135435571500617,0.25912437239846037,-0.09883764234722525,0.9341973510508557,,
5.145112000000012,164.04823502880114,68.47794765176614,101.5286780092273,1.9529031221294322,0.0732908269848942,-2.825234505234702,0.14992139304864494,-0.3104573802817143,1.1230893580810908,,
5.154542000000021,156.49167259448436,69.02405647533338,101.99710236439599,2.60123736173111,-0.0802659460975224,-2.1645605625329423,-0.010206389753918606,-0.5591001179477169,1.6081221653295579,,
5.164060000000006,148.38887705352192,70.32360302690941,103.6869821437568,1.7594894792889524,-0.11017213013121503,-1.4548440774619447,-0.1433219972904861,-0.6087529294151267,1.9780635868353766,,
5.1832580000000235,146.2498434073219,73.58000860330583,119.10775639737591,2.1365640769100422,0.42536581520595956,1.2871892153575153,-0.3806091091308185,-0.08214323294141403,1.9471223519656164,,
5.1927670000000035,153.6247999865629,75.75157186496062,135.15460015838008,1.1420486156720495,0.22903668905886015,1.7729861781698977,-0.5912721027755722,0.04607081967200373,1.9634032515590687,,
5.2022730000000195,169.17423712001204,76.36331240136498,156.9822196452843,0.0016126616575211548,0.28097690705373957,2.545388839293108,-0.6946291387924944,0.3136940246522513,1.5373115662629164,,
5.221291000000008,-168.79065180125585,71.3050685373014,-177.27039306158372,-1.938013006498663,-0.26651034872773577,1.6056852661330558,-0.44235982815144503,0.6908282570763018,0.29802492138493825,,
5.230814000000009,-165.43106879345612,67.51570014500943,-176.5051442836689,-2.3274789393725275,-0.05195117295133178,1.1564470087250913,-0.2819864119500757,0.7362798739815586,-0.3423001072766435,,
5.24014200000002,-163.8658117527582,65.61384888056381,-179.76192766627094,-2.4725354426343262,-0.11108894161960015,0.17597882885090935,-0.14493830476421435,0.36817363405360126,-0.8192641423628035,,
5.2591600000000085,-161.74147747295484,66.29915326972797,166.03288211870904,-1.342867166552086,0.3819643052525821,-0.5841268023449707,-0.12332100338398823,-0.16004814877015255,-1.786562569336492,,
5.268674000000004,-160.22157686539103,69.29633499568317,157.65871959825625,0.04735641889933041,0.23484727684197618,-0.8996172584034451,-0.3086584374415424,-0.5395031445084684,-1.995947929870901,,
5.2973810000000014,-159.35791170437122,79.64501010189583,133.28124190732052,1.1750678055240695,-0.21558831254842195,1.753707118214906,-0.4582472350656408,-0.39104373763056144,-1.5537641577229582,,
5.306894,-154.6347186446555,81.0447714457691,132.05462106508384,0.5790243357851861,0.4818252641743928,1.6955702307735354,-0.3261436172743337,-0.07104937329793654,-1.1977457652383452,,
5.325918999999999,-145.37511054229137,77.24473274897844,132.14691461542907,0.2210908690145074,1.324257172281882,1.1858034941422189,0.2824311719192638,0.4855773093154809,-0.7639420897759915,,
5.335436000000016,-143.29255689214187,73.98456564558597,131.84576335887826,-0.3074894109285407,1.855011566132007,0.12264456224964113,0.40492487630307383,0.517795071735551,-0.40455483490636074,,
5.344763,-143.95374207662283,70.40482430596977,129.81891734792836,-0.7902689883712378,2.1379168257444916,-0.793703238398988,0.5577074416747326,0.442148277987467,-0.22021261782299897,,
5.36378400000001,-148.46556344089822,64.892673236069,124.31395343622931,-0.8918712826850932,2.727060064627702,-1.9486958215013879,0.43363267174028286,0.0944206043918899,-0.002082107627493249,,
5.37328100000002,-150.74010056212146,64.11307657507793,122.31498699767046,-0.6850320320328885,2.402029539342455,-2.1961740347578997,0.22568693485281055,-0.07244142014387026,0.056573968301319354,,
5.3828040000000215,-152.854112909778,64.22930680818017,120.7906614666589,-0.13032791754026624,1.705271553842217,-1.7599922959211485,0.06412129873350768,-0.16337402667099035,0.11375557474553595,,
5.392312000000004,-154.15254093936682,65.14168383515438,120.6734780062408,0.1522136469269795,1.1523341275902823,-1.1794443770716045,-0.11289786110340318,-0.18288853262800306,0.25291012077550157,,
5.4018190000000175,-154.03434179546804,66.15233298758565,122.007357456876,0.1976329876541552,0.5179091834047966,-0.7833517640725522,-0.19053245883461345,-0.09104563470644933,0.28946695740186046,,
5.411333000000013,-152.01688975363746,66.82215407676645,124.6788817112829,0.9431689199979036,-0.9819046615505808,-0.476368341875661,-0.21297957997137942,0.06660480669643394,0.2082327716325325,,
5.420849000000004,-148.06660371234744,67.63179314221576,129.6978604002697,1.189611595725444,-1.4735204386366665,-0.11013958923571204,-0.32640377227240625,0.15157184789180184,0.3265573362016496,,
5.430360000000007,-142.08238213283758,68.23557404086634,136.47911505331274,1.2225636768108996,-2.110234048663277,-0.17095378183683946,-0.40749254229925364,0.25202352833151237,0.3229718474369257,,
5.439866000000023,-135.43168291372677,67.99175897795536,143.03668116452127,1.353994107596532,-2.5582786832268782,-0.04654789357047678,-0.35867852146202284,0.3634956261593994,0.1650963504602289,,
5.449384000000009,-128.58789844346674,67.36615474309653,149.0930332883041,1.1887175132210548,-2.724815920982953,0.10287452367294551,-0.37305051541372203,0.40002095951674604,0.035372866112147704,,
5.458887000000004,-121.50642787167978,66.84765384065587,154.80226928817643,0.857861512251852,-3.046158040969797,-0.10294104446979581,-0.44943519010297994,0.3567759252434896,-0.08616238123460454,,
5.468404000000021,-115.67076360504048,66.49198485219028,158.96143484411513,0.4862283094013664,-3.007371944308549,0.03085037887813907,-0.40961574488656366,0.25294192643012514,-0.17806008185027913,,
5.477906000000019,-110.98356641746041,66.62750463305703,161.89620346935934,0.20729254041306158,-2.6729471680732653,0.38572589664512685,-0.37327297393258724,0.10525596571365803,-0.230074494740274,,
5.487421000000012,-106.45702493752701,67.4435675154283,164.69550107441708,0.21988563929659724,-2.8377262327426496,0.34589471031892854,-0.3981785830592396,-0.04911644626281206,-0.2564445701016155,,
5.497118,-103.52189977639003,68.6285962974863,166.79504949987165,0.14663104246542216,-2.472220500866077,0.46213659790052936,-0.28397169957269836,-0.17029164788681017,-0.1219265569976146,,
5.506624000000016,-102.3777635689938,69.87678127505693,167.98449809264707,-0.012103776212109289,-1.4956435607510208,0.7111047527582005,-0.14613906825243383,-0.22084430826559423,0.011122290064569777,,
5.5161270000000115,-101.47623180202366,70.95098465902757,169.14337576080118,0.1976294859123781,-1.318886183531886,0.49900667762508777,-0.11434167742747241,-0.19356496910457932,0.048596292491576654,,
5.525641000000007,-101.78056907699583,71.4539327358192,169.81146464834268,0.28376838539544375,-0.9708967040756389,0.3197719784248554,-0.011663579762998165,-0.0975052126049241,0.19424367495794861,,
5.535160000000019,-103.14780301887617,71.15543820107912,169.92969264217854,0.03688561946330367,-0.1098832873651979,0.2520860606388744,0.08424950206234737,0.04810792341558294,0.3056677621643721,,
5.544662000000017,-103.87777944928055,70.0971393540108,170.47883771420942,0.04510791771165092,0.5095481115831775,0.14477781181977603,0.0713394393741645,0.20498107788184483,0.2833696524799892,,
5.554169999999999,-104.01938224331673,68.41653130013653,171.73565462269747,-0.03925169472753053,1.5112253671871876,0.16190297053723107,0.049501181819262455,0.33507396263052014,0.3137384683482507,,
5.563502999999997,-103.86289683806689,66.39804929436075,173.25365052874503,-0.3893281889602503,2.372383748407982,0.11906764379742162,0.02846835045340212,0.406149360086981,0.31585621437544575,,
5.573026999999996,-103.75050884362132,64.43021356270522,174.19930300582004,-0.563728034859542,2.7487845658422088,0.04936009987773933,0.021363443889670913,0.3963620579353852,0.21695478280981348,,
5.582520000000017,-104.32841053718592,62.94213679060328,174.28805613580846,-0.8691844286092492,3.331964926303616,-0.04060725866502731,0.06784397120471135,0.2948570816206251,0.1377434017915019,,
5.592038000000002,-105.71515737367832,62.33312635909307,173.28219763124144,-0.9285793647698188,3.5337340679576097,0.08066312435027138,0.12677713189915624,0.11092871449470562,0.05000655786135063,,
5.601547000000011,-107.25035314477452,62.86186351425074,171.92391181904645,-0.7899572334730661,3.449513612718228,0.14143764405086673,0.11330090119708022,-0.11968131362820286,0.009638495516376843,,
5.611050000000006,-109.22082160008051,64.33365213720232,170.12869809080098,-0.6557333143984023,3.427820279550117,0.06061215919542767,0.11410279913374106,-0.31480740220168146,-0.012106739574268843,,
5.620556000000022,-112.63127656575557,66.10971707465691,166.81348524039902,-0.3055872602710432,3.1129200945991466,0.05796740385756762,0.1965289218254436,-0.4016228006392361,-0.07040094733788538,,
5.630087000000003,-117.22972205324432,67.58441661906262,162.20395505648108,-0.027257775503205958,2.7178289950486816,0.02796492928028047,0.25724569725326774,-0.37691096669562096,-0.10632284830404198,,
5.639588000000003,-121.55255617356411,68.41280096154337,157.71085883788365,0.12493068543185265,2.0529204235095277,-0.31650748423979086,0.23480957684148032,-0.26272658958160366,-0.11650906303970268,,
5.649094000000019,-124.4532090839747,68.40534044661193,154.46398788181287,0.04903977487886411,1.6451081289515537,-0.6418268731621846,0.18290408664923735,-0.08111854362173151,-0.11986014709513095,,
5.658619000000016,-124.57402077368103,67.73989408351046,153.35336617953192,0.025449393664171056,1.0304177698422465,-0.9535717198475104,0.053777511792290844,0.11994868964907282,-0.1885457983882126,,
5.668202000000008,-121.70247558158063,66.79001601086946,154.67589004603607,0.03504379114972727,0.03039490196894503,-1.276957982988623,-0.128953599330242,0.2730041756813039,-0.23509991202055286,,
5.677627999999999,-116.99559620575253,65.79102636292171,157.5959505870498,-0.1521711869784288,-0.7277631027566355,-1.0435448168772294,-0.2777914067207123,0.34142554138595926,-0.235772208325637,,
5.687148000000008,-110.90694096258127,64.94065716451644,161.28515749469366,-0.02667371165859663,-1.7779732292545793,-0.3604111572541976,-0.4278777308998919,0.34368487249403873,-0.32401875960757837,,
5.696661000000006,-103.97164457573103,64.26499916337998,165.6494230143239,0.4282808765732125,-4.147832375781578,0.3026288577163831,-0.5442553728255624,0.30536878148475505,-0.34385761109522733,,
5.706158000000016,-98.33371302926088,63.55662297798035,169.8919563138613,0.4216331344944475,-4.885085941030433,1.138309513084595,-0.46707251159006014,0.25005932631715855,-0.13025858309059998,,
5.715682000000015,-95.3603891103071,62.7694106126152,172.4244167310704,0.5158918200715643,-5.037115018198974,1.5848656810599404,-0.25356764468417803,0.20306614081082014,0.0004796431039841788,,
5.72518500000001,-95.61575001305754,61.983198273948666,172.6372106286307,0.882083158265256,-5.347336802974987,1.6358252010581613,0.031558401457189245,0.1586681437430799,0.10569372907565275,,
5.734683000000018,-98.25762597282939,61.25336607001114,171.99440413093393,1.0645531731811761,-4.707337203281935,1.4384303938175098,0.2560939800949633,0.11628453361208566,0.3551328403419669,,
5.744201000000004,-101.66571118487234,60.714883163346286,171.5171666931599,1.0065413582256295,-4.189737304987898,0.5065205441230239,0.33015715506066096,0.0635717836333194,0.5289136294603937,,
5.753719000000018,-106.43421159670375,60.33132828826184,170.20000620965874,1.064073966817334,-3.2707660921310473,-0.39049645395184934,0.4628294730760687,0.0047145479921314685,0.5940969663000554,,
5.763226000000003,-111.91397027699556,60.13390534408445,168.7990291897504,0.7863068702676973,-1.6221302597798888,-0.6973366663585377,0.5292886740853855,-0.05754280748477948,0.6914505702365153,,
5.772726000000006,-115.90735015923704,60.36931759332727,168.71079180170778,0.41721319846039995,-0.29942232375509975,-0.8346175618494435,0.36627888999088964,-0.12135505982120931,0.6957023569072002,,
5.782260000000008,-118.19256789222841,60.85404692695477,169.68777705777862,0.6048598278810858,0.7409660887297462,-0.7935737958702739,0.18860267399649094,-0.13577053900396735,0.6156527036902782,,
5.791761000000008,-119.72554235491096,61.28678968455659,171.68341465311912,0.3228484772021607,2.5098745218698375,-0.03690176357088372,0.11864719299610937,-0.10867377680955051,0.6960529130377566,,
5.801265000000001,-120.47080770486102,61.60111776775394,174.92846029706138,-0.1377654240570807,3.3547887685245277,0.7129637210992883,0.04964860739089118,-0.07084330156894328,0.8168287433025221,,
5.8109699999999975,-120.93346902458909,61.57894739384317,178.30049914698407,-0.05623736102804842,2.968962559676696,0.8101096746150237,0.030536900359311146,0.0009277510370096812,0.8030558516140232,,
5.820290999999997,-123.23527494468954,60.951061392855316,-179.94235207904336,-0.8307038524463783,3.961272397949141,1.0891749381492235,0.20999655633277545,0.12030290489278474,0.8083795922768944,,
5.829796000000016,-127.79015618730755,60.1438998429537,-179.48998587885276,-0.6914212898275097,3.629617337759157,0.9208939827096627,0.4345861479316233,0.15980986031071942,0.9452083046078045,,
5.839309000000014,-135.1380562341747,59.704878491214394,-179.69640918144628,-0.3897137303426612,2.921498700876711,0.11811428778501666,0.7237835006993673,0.08666888461224269,1.2982807917148818,,
5.8488260000000025,-146.81421318418148,59.47530369743364,178.6235853738957,-0.13581034373358739,2.1962291760282415,-0.9506018219516938,1.171053133290607,0.025031674261881683,1.749623951795857,,
5.8583320000000185,-162.33692568832774,59.090379697456974,175.16432453930787,0.9121791715212709,1.8465016480079826,-2.162836036670764,1.5766491160759897,-0.022763153417452726,2.0547816609653933,,
5.8679209999999955,179.3895272806209,58.38642643903916,171.01121175565984,1.885051773336961,2.69346166284268,-3.271493623132196,1.8894636925393336,-0.10603089121955642,2.3756845217301352,,
5.877346000000017,159.78067102066709,57.07233118150025,167.72169328752682,2.0058310992096327,3.8157926510607654,-3.2937897324432592,2.0985121719375828,-0.14965200823907296,2.7471605450975933,,
5.88686100000001,141.2933835523303,55.790712798422305,166.5467897250238,1.6616378719612226,4.648541010688718,-2.0148826734791876,2.046465041499494,-0.22721902687369205,2.936294632457818,,
5.896381000000019,123.67944416978025,55.924183210675146,166.86786739688145,0.6705911032306031,4.258062982355773,0.1614804782610916,1.918157450684755,-0.4980579455084575,3.0525202412724126,,
5.906072000000023,106.25278796477319,57.84908831885021,166.65961498793177,-0.1386447865378168,1.0113190863531936,1.6871561384770093,1.768663929762608,-0.8208691059952817,2.9143183309287704,,
5.915579000000008,89.2846548430782,60.45835337303483,164.00307756032728,0.0642574309424155,-1.0180635205028334,2.100827487021309,1.5567989346772768,-0.9494647307269468,2.3879751240613243,,
5.925083000000001,71.82344326312413,62.11264318841015,158.70482271560948,0.5760431665809342,-2.548513757654239,1.5248020779018427,1.4906897345319328,-0.8506070756746629,1.9884314876765956,,
5.934426000000002,56.13573518823527,61.56768132029288,154.01833546536616,0.925236712399704,-2.9039789221112886,0.37279195682592153,1.4069673995149672,-0.4959238537808304,1.8207625026508176,,
5.943926000000005,44.88887816639838,59.109441840693464,154.22377872531035,0.6514630013855316,-2.44601113270449,-0.07320402067411519,1.22446200137807,-0.04555491945937664,2.014537818085938,,
5.9536270000000115,36.519203416221806,55.58467994559431,159.29147992150519,0.02984298458457286,-1.88836880444935,0.3287668284390191,1.1179204362844224,0.291640162072569,2.470702991437825,,
5.972639000000015,19.252351592591555,49.31405694879274,175.29869258048384,-2.4084108643593014,-2.3329755792655424,2.5781867011304556,1.2689626938120115,0.31048736950947153,3.223236624733016,,
5.982144000000005,6.664576081433815,49.61497503560761,-177.14274296558136,-3.19968391744559,-4.013204700700888,3.1887035852040335,1.641115703914194,-0.08478829875087054,3.5357463818619945,,
6.0009919999999966,-32.06483076603224,56.10755317101367,-173.61962768916615,-1.384974571583343,-8.125086451921376,1.695806478796355,2.6344398169048597,-0.3781862257673032,3.475503412331983,,
6.010508000000016,-59.08089091310306,57.493264673923726,179.69946523235706,0.9371668908894909,-7.494447929155295,-0.7502100511879709,2.953305716673363,-0.11589573194374388,3.2827720829848257,,
6.020009000000016,-85.67389764604204,55.3610924708568,172.62414361896674,2.5501161308579037,-4.232115116326862,-2.171162879394251,2.945885559408126,0.21605628375370375,3.120197944159586,,
6.029527999999999,-106.01151747781121,51.2999241084474,170.48345286814978,2.2041024386242927,-0.06094131475970156,-2.259373981474613,2.511219118645028,0.43209296317387696,2.935874070814443,,
6.048546000000016,-136.3943985089088,45.633149883606634,174.56900819972873,0.8391808212506849,1.964046037684863,-1.8906414457744272,2.0292081043218095,0.15304184433164308,2.7548655430387927,,
6.0580520000000035,-151.84629557711082,45.65782153122907,176.91679640487243,1.197490609139067,2.0353484453841233,-2.1844567624804694,2.145837753770614,-0.17973842747480484,2.7627574823397283,,
6.067649000000017,-170.53803806212434,47.2281547876489,177.4499824317459,2.810519869246372,3.018159780632239,-3.653709861472994,2.5499492397884347,-0.45532767940298347,2.8868203342643066,,
6.077076000000005,166.50658119497035,48.927046579519285,175.23830827608566,4.259662654837956,6.208328259638741,-4.656967375930515,3.032077387096959,-0.5507782637742339,3.0449829344145187,,
6.086581000000024,141.64709493558055,49.68622716088615,170.91983043655088,2.976971879985678,9.652036675305443,-2.841475655174182,3.1924962908462717,-0.5593322872329963,2.975035900322464,,
6.096091000000001,116.66642594619174,49.24247764566922,166.49639895793177,-0.3364530889419308,10.864826956670457,0.385267887964706,3.196788126857623,-0.5674607900753772,2.9694861818168814,,
6.105604999999997,93.43961730694424,48.25892948328099,164.4581563062859,-2.656716632962414,9.434473585626508,2.6001364573367525,3.0155067442555965,-0.5919317698493243,3.116463892992966,,
6.115307999999999,71.97927002897033,48.241975185652066,164.96044934923282,-3.5407742838155407,7.116606497615948,4.4057641243450725,2.7653196018084114,-0.7540750314095517,3.292774793403428,,
6.124818000000005,50.44020282992627,49.863220427097595,165.55978932029427,-4.18239553752066,3.9008928667439107,6.005911431915786,2.6593692903971107,-1.0230013010085532,3.3232260885665212,,
6.13431700000001,26.672354767856547,51.755295948761585,163.38089638056948,-3.8292601085807485,0.22709739521181238,5.7988140349013975,2.802981190001001,-1.1498570406377122,3.1819061080166837,,
6.153168000000022,-23.984247830902945,50.4470538559749,155.00479075818748,-5.49071475767991,-4.965323575043706,3.142436142383926,3.0064282856900912,-0.9176249668149622,3.090798528909656,,
6.162676000000005,-46.50021098898755,47.561229837438,154.1089866654986,-4.813487206701027,-7.543742143812183,1.1298426104757666,2.9127499376362826,-0.7418348804510863,3.2227120449323996,,
6.172188000000006,-66.62293068302523,44.7148255026752,156.49120990992506,-2.5664147183118757,-8.613019983505728,-0.6323699646701808,2.769091316455785,-0.6424442330777959,3.3807799825479905,,
6.181691999999998,-85.9943014614932,43.098177177770154,160.05024967927207,0.22344390418323962,-8.791658348083116,-1.4682813019852727,2.709027046996401,-0.728104780681796,3.401978792631639,,
6.191203000000002,-104.60828204733372,42.85708397383693,163.75823775831043,2.695038669249279,-6.873058269163929,-1.4394205925280354,2.59901266119945,-0.7945052202463315,3.264125799371272,,
6.200704999999999,-120.16750447031201,43.80384442973386,167.0752192408058,3.52550481862936,-4.38086946181924,-0.8036735703131838,2.1357513912274975,-0.7488351631303549,2.772913448426857,,
6.210223000000013,-132.78230350042608,45.38120331512775,168.617892649322,2.378442655681192,-1.559419598880316,0.2378481376815953,1.6801462267179965,-0.6855928706942194,2.059551518038509,,
6.219916000000012,-143.12515544153104,46.558248080386626,167.48394332267728,1.2612485808878922,-0.2411851934481315,0.5908154020378988,1.3463622732422535,-0.5296442734963656,1.2466790696398242,,
6.229428000000013,-151.34215932903828,46.62654745338194,164.2828975774508,0.5669528819372472,0.35263215895006883,0.6568142365919855,1.0793780024617687,-0.29328377820850543,0.5707186570336829,,
6.238934999999998,-156.7743296174849,45.950605865842824,160.26152520954983,0.2510606108484314,0.7913925413243269,0.4673124632466049,0.7429926505692586,-0.1095652088666928,0.15595831111498462,,
6.248271000000017,-159.47972498874697,45.25976801213054,156.8942704688959,0.2245082315080249,0.975210661979014,-0.35100691366209974,0.38982052307665316,-0.019703271167912793,0.08287560902954615,,
6.257689999999997,-160.6182486805444,44.454416703481435,155.2341388278439,0.6656005007939307,0.9020345122035257,-1.052148255322587,0.20147369598734594,0.07405639940584506,0.2984942813979524,,
6.267179999999996,-161.537888220705,43.60732195379324,155.70974069207924,1.1971974706262227,0.6941285265146652,-1.0710816975774082,0.17981987367235966,0.09148650577600964,0.725884969986248,,
6.2767060000000185,-163.0096607140883,42.945924106951445,157.85942527581997,1.6494906793430435,0.4924329551293128,-1.0586744935533987,0.23727754490385916,0.027176371737497384,1.1421723850136145,,
6.286192999999997,-166.4913957799754,42.19757426798162,160.5602197712065,2.733455110455378,0.31922275381943005,-1.58363679915436,0.5199694990945748,-0.058526502982604964,1.474001813839699,,
6.295642000000015,-174.19091452573215,41.82743090930113,163.18479813354142,4.238698499801172,0.5254669984616596,-3.303925293853877,1.096796516938907,-0.30852927305102074,1.865499189019918,,
6.305414000000013,172.27101672290132,42.288891461575446,164.9982159141151,5.68363536090261,2.4694363291812604,-5.082617318086184,1.8997873095078883,-0.653764344454561,2.2250568163244915,,
6.3148470000000145,152.3924671993523,43.70901379320668,163.8312532331248,5.461293865253142,5.364834735143666,-4.893966800441392,2.720987542906679,-1.0591728124202893,2.443817284390232,,
6.324348000000015,128.63792586186162,44.14113308841961,160.08992215642488,3.574632626665721,7.586862581190256,-3.522289412233208,3.223525825570246,-1.1439344913910505,2.504118117482389,,
6.333870000000019,105.7474797578332,42.58638919860736,157.52648656815205,1.980606947354499,8.451611953360786,-0.9766078191640797,3.2145010159518215,-0.9185268947228837,2.580134306188941,,
6.343373000000014,85.38736114132556,41.13159962747018,156.87915025007484,0.6358095108592748,6.736841148295069,1.6881529539357623,2.9112550347831943,-0.9132855905394741,2.5620228932810174,,
6.353075000000018,67.80196937763837,41.40652870210816,157.12866038756232,-0.08688677123754031,3.1592051705259445,2.306745448337288,2.4193970844917883,-1.0813793904430924,2.3158571688935545,,
6.362576000000018,52.93464997724774,43.47845938719557,156.81118073754337,-0.010860745228905384,0.9113506616652487,2.168027041559832,1.8689009635992309,-1.2305995240323875,1.8434007750281531,,
6.3720849999999984,38.948670683081104,45.985741363772185,154.42428293885845,-0.08782957745630697,-0.09501266481693149,1.3949082716510939,1.6175056148408906,-1.2626047456914278,1.34740601263103,,
6.381881000000021,25.536126492896997,47.71587330147126,150.48833713776543,-0.7143680439766568,0.10330283235429728,0.6960579012345545,1.4810836664878755,-1.1391224201557621,1.0146747812070331,,
6.391116000000011,11.817085749887426,47.64083813618544,146.49301401252717,-3.023191908080686,0.3291819609821986,2.259326055650063,1.5945700965911727,-0.9364495037180137,1.0938355790152399,,
6.400615000000016,-4.559693519574166,44.41537931594876,144.17305679528155,-4.4170782423406125,-0.7484466956576438,2.6187199516466113,2.2436653517550016,-0.7495077659281704,1.8148132359937912,,
6.410133000000002,-21.97967325986938,39.85016236077361,145.09437233014387,-5.957370994586469,-2.857567527621198,4.24879876138318,2.639619581633786,-0.7416595965455833,2.4862053961258663,,
6.41946200000001,-39.98336601351879,36.34006533859818,148.35103238447,-4.650335750532131,-6.168100760516768,3.408854535557783,2.7583899869794237,-0.9584051912174163,2.8469827638651113,,
6.428982000000019,-57.50223268256815,35.08193788083975,153.69405245121948,-2.799064198730521,-7.781618587804078,2.068787504106476,2.6155921643898856,-1.1449773847478857,3.0702220016914556,,
6.438482000000022,-72.94899772536388,37.03469836848115,158.8903982019829,-1.3845939316954143,-8.286962117266503,0.8037669921859556,2.134519714449245,-1.342933499176051,2.767512836346252,,
6.45749600000002,-102.36034991051653,42.38046059762218,160.381707060352,1.5536904529014033,-2.830424893232796,-0.5379663158195417,1.8139306936104431,-1.118390748955427,1.6907150173082572,,
6.467026000000004,-112.25471720954945,43.42212649361688,160.18333551485878,1.2247963294050013,-1.8546442440417028,-1.0058688702883052,1.2864155483721096,-0.6751087721043266,1.220287364600444,,
6.476531000000023,-119.10458685432712,43.040989451053115,160.26363886335656,0.9269620995107076,-0.34509089755953126,-1.2629632917770595,0.9541054109870796,-0.2605607384972777,0.9078663599040239,,
6.486039000000005,-123.96999514946688,41.66738513698729,161.14784841295332,0.9765587910301693,0.735552335373981,-0.9066900109187139,0.7576158226646783,0.02299271326620604,0.8662853285642063,,
6.495553000000001,-127.88845792106025,40.150852291641854,163.3622910524595,1.5313873294303608,0.7600330651645522,-0.8500356625602694,0.6451112327964278,0.10601696001655066,1.081689771083042,,
6.505068000000023,-133.17465993559574,38.74377263924685,166.43178500433172,2.0519795108634433,0.6864511295655911,-0.8867013619029244,0.8502755575936478,0.05382926553824379,1.405723479947591,,
6.514567999999997,-141.76407529804794,37.323408818830735,169.05190533197037,2.654417097237664,0.20602569700544462,-1.538503655127782,1.3720454634689174,-0.018038343719723085,1.6663287757727872,,
6.524149000000023,-154.27443185576348,36.422511192401565,170.66390579159443,3.71622270623814,0.4156253236787185,-3.29834512260839,1.9925133026794968,-0.1864979081927374,1.881718506079206,,
6.533669000000003,-172.22392133987978,36.89232927867258,170.95638404891017,5.667759703923062,2.4305785627998775,-6.4437210315520375,2.819954194356285,-0.5652831562198349,2.2380785045979104,,
6.543176000000017,165.04173688980055,38.622702944259636,169.02660410472058,5.058911390079062,6.181672533544224,-6.152333877297747,3.473246945043728,-0.9741523827800866,2.4155269440524805,,
6.552604000000002,140.67189925532446,39.51042603243291,165.0154656922566,2.833997187588802,8.650504422323118,-4.3247210617495355,3.641123492213892,-1.0305356110295898,2.272775062865228,,
6.562123000000014,116.82327720823518,38.29127273967546,161.8168773096949,1.3647489043105683,9.355966116703055,-1.3738488557469566,3.622672647356337,-0.8380493399650473,2.353850045761284,,
6.571632000000022,94.21224743326732,36.893128226749546,160.59038390941387,1.0524063127341345,7.814094659345619,1.1509097182555212,3.483231768593401,-0.896812923943543,2.4861469922370327,,
6.58130700000001,74.0598920621179,36.793365728019715,160.25866678578666,0.4921111084045963,4.250776631839394,2.5708226354625294,3.051608417988332,-1.0598571536520764,2.29750076050103,,
6.590834000000001,56.72557854955871,37.82023448160699,158.6011799339385,0.14555907264098242,2.2042501947732656,3.515175864454735,2.5145194201551186,-1.1596766766145006,1.7597885500823542,,
6.600346999999999,39.43400220873474,38.26133384303772,154.49300467697594,-0.07068017717370563,0.3792607757040107,2.2939778283055716,2.4680044550434053,-1.1605491370951593,1.3021404232528477,,
6.609867000000008,23.115150639546034,36.819406868237266,149.97692160428016,-1.178022507499448,-0.06865926687085858,1.7452185543696372,2.432299875290982,-0.9343014576617308,0.9751644780789793,,
6.619365000000016,6.0888666295544,33.77700654206156,146.5445656166448,-3.6897912174575547,-0.8088741394080446,4.739615232935477,2.6895695303390994,-0.9305379546808603,1.2046488936014812,,
6.628867000000014,-13.841348125183906,29.85271054154054,145.38019221998562,-4.801445617329195,-2.6512233611190896,5.673399638682321,3.2523495499957824,-1.2285649297262173,1.7801446719764544,,
6.638383000000005,-33.20892323047296,26.354146301292072,146.60685149281122,-4.299307154355914,-4.942283199744597,4.484863207443285,3.2311083709311905,-1.311673276414961,1.9765796126411335,,
6.647723000000013,-51.47392553005139,24.313873375353353,150.1343256308649,-3.6284522248807214,-7.255263983659506,2.1268475360408874,3.0338461669355103,-1.3617736123838193,2.160900712308448,,
6.666735000000017,-84.19466636672101,27.658171028359092,156.8917490101173,-1.5895575711864216,-6.145682694460154,-1.1179945052387332,2.323300092681546,-1.5732893190186077,1.6565920657181716,,
6.685582000000011,-105.18537310581547,31.659903992760892,160.1347958052081,0.4731426643601229,-1.3870916899329473,-1.040256464381303,1.2616136179864395,-0.7779155486251188,1.0035814921714217,,
6.695181000000019,-109.49440025276493,31.601530601496993,163.8208939448618,0.9626079911327104,-0.18862706425320716,-0.6258660027038583,0.6963508321876432,-0.1938038213231197,0.6144029427575707,,
6.704667999999998,-109.94473545785091,30.14310322529463,162.4691311241051,1.267167092610368,0.012012108561760005,-0.5532880270993992,0.15492935358274837,0.25712877296548625,0.4164974638256423,,
6.714186000000012,-107.57169512556821,27.57269610681688,162.20889227658026,1.2748544220224227,0.5855872225558343,-0.5840436655937022,-0.2361884319331156,0.6270554840546433,0.2659631211220841,,
6.723702000000003,-104.06987263367866,24.214744093429086,161.5185216017648,1.534946966054459,1.3299897669706926,-0.46551206127461653,-0.3810191773455033,0.8492362766900914,0.07714891197436533,,
6.733205999999996,-100.9199264645361,20.790919395990784,160.3343941812805,1.9275899748875125,2.1103815465935214,-0.15423386292512375,-0.31757059646093205,0.8511563293027927,0.018150323409055896,,
6.742713000000009,-98.66593441313319,18.093181276216892,159.09074398416982,1.7189673614747756,1.9088099848940512,-0.07269975290448746,-0.2064003165031125,0.6650656338607933,0.0815280602641581,,
6.752235000000013,-97.69505577951628,16.50714123019971,157.16163942779994,1.4690104711651475,2.33033448485369,-0.28017440088591083,-0.054066765618518975,0.37189442531547945,0.023136360680913265,,
6.761651999999998,-98.82766776260753,16.114904278216265,153.9276627515425,2.315554999875339,2.9766465722586757,-0.4306514944516543,0.22316733361295865,-0.01575697404451332,-0.13843359659427804,,
6.77117800000002,-102.24326983170023,17.042683900933163,151.58004510067985,2.6130490186451785,2.1041589973638692,-0.9500326160091425,0.4841546860089642,-0.4647753643096334,0.04136135590649978,,
6.7808550000000025,-109.27201211634627,19.014967919379448,152.043511785963,1.9265873485532365,0.937259535245961,-2.0045400946600975,0.9911281080540288,-0.967502013755272,0.3900801676098942,,
6.79044300000001,-121.33325946353716,20.974057232172367,151.0328430184366,1.384331992292093,0.10843758584223807,-2.7368119843092087,1.8077073532500125,-1.4096733577990868,0.49019276003735296,,
6.7999499999999955,-136.46146677123772,22.372867064307286,148.62015217455075,1.8972165110679566,-0.34381720624582746,-3.385317271862556,2.291163750228161,-1.6400622368842388,0.5139005782507639,,
6.80946800000001,-153.84924069441868,23.207201125918367,146.0583163702785,2.709535659423026,-0.29124795485080446,-6.00413722501566,2.609748933597578,-1.8568220718735393,0.7155884139844296,,
6.818988000000019,-174.14694368559958,22.120062222479483,143.49074727599356,3.51005984571384,1.3872447779675507,-6.981524461262631,3.1828910791856746,-1.973734137509449,0.9476700519549567,,
6.828495000000004,165.18182780111832,19.14421612095795,142.02548346757743,3.742584844509559,3.2873808314846524,-5.635906630495376,3.4344536098577545,-1.8651289877849053,1.0720434994328638,,
6.837923000000018,145.15635708259833,16.20464989510687,142.27928678096995,3.996379196888182,4.90414235060199,-3.494970584896049,3.3703409162773936,-1.8756455867553932,1.1673030512930551,,
6.847436000000016,125.09562516845341,14.604578063226917,143.92165172605843,2.1311732222412005,4.2556736183187756,-0.17451853397138845,3.28930694383974,-2.058333265295967,1.2538630531375743,,
6.857128000000017,105.52330894486089,14.497242777880722,145.3199950692726,1.2292342347744645,3.376937752883032,1.5499432788345473,3.09769316182147,-2.183355845455715,1.2514023765421092,,
6.866651000000019,85.08491441739692,15.64525713594306,145.67843290434556,1.2869566776356558,3.4059222023793243,3.3177138674848656,3.122737151833332,-2.427309008175658,1.1223787170325534,,
6.876151000000021,63.00508349049345,16.907376441997837,144.24209139841403,0.4215998033143257,3.0446282933060504,5.5264489841813935,3.3285696057518614,-2.638350520531043,0.941261610725166,,
6.885618000000022,40.53905597751716,17.382415749877424,142.1097070590853,-1.3072548229173395,1.9924065812813063,8.5199012331091,3.384079679234571,-2.6447841624809985,0.891578528989425,,
6.895171000000005,18.113468160337895,16.289118962768175,140.0798843971998,-2.989920910464429,-1.7564166847658556,8.531499075286293,3.4817139345906156,-2.5208654197343505,0.8890350110047209,,
6.904681000000011,-3.975050943785803,12.528729589563607,139.09459431362527,-4.063415982888684,-4.954519763997293,6.788192819232849,3.7467980118405957,-2.198871452751817,0.9001145686955537,,
6.92352200000002,-47.02396540585092,6.327835084092338,143.53086442272783,-4.945984482193835,-8.116489278090315,0.665228998702282,3.587297689867479,-2.3252205094343537,1.1275415251151142,,
6.933039000000008,-68.62321226029165,6.5885358253999495,145.64836017770384,-4.162479270527847,-7.936624896701903,-1.8759151606781497,3.47180547226812,-2.5209117091587743,0.9129341311072401,,
6.942547000000019,-90.17073370476398,7.68185997090396,146.54685430481615,-1.9726116494858106,-4.795617355667789,-3.4543563703804163,3.4288034064936546,-2.5588314934402487,0.7236810520481723,,
6.952021000000002,-108.97665860311947,8.685119475535123,145.83741531052158,-0.09370236207376054,-1.8632784044990711,-2.9210495250502806,2.9797337885966946,-2.233296529022607,0.4061000089984645,,
6.96153000000001,-123.97867698819732,8.805420277700694,144.15783763409414,0.5844550094801209,-1.1395800304997488,-3.3213960757086003,2.410043184194994,-1.719047690543717,0.1331064756804434,,
6.971056000000004,-137.8477989405017,7.881534886291769,142.3616748911784,0.7402514107095249,-0.1700234862266771,-3.384824413130303,2.3024600438195377,-1.4947117641713874,0.05521553834267256,,
6.980554000000012,-152.07263425450066,6.448635881388075,141.015992149773,1.0082405485869415,0.1061546880729466,-5.837557635323054,2.383680715122359,-1.5287048759826325,0.09607206865364154,,
6.990064000000018,-169.14335289104665,5.626451568409595,140.67154495053094,1.610389624753325,1.626977347807244,-6.617281483754731,2.7269162707456123,-2.022450324994366,0.29746914671523456,,
6.9995739999999955,172.22543891947254,4.977835222205314,140.85396528491432,1.8406288941369437,3.474926692140217,-6.867361839366175,2.945680681987545,-2.254381252502893,0.38393747761435093,,
7.009094000000005,153.26693150906715,4.07877048762126,141.45231972828032,3.6737218309580717,5.634227757568707,-6.586046856291229,3.0463597013705312,-2.240009054055969,0.4175874246282559,,
7.018532000000022,133.32135264712244,4.510662886699654,141.8792231677079,4.846640396460273,6.382505605738626,-4.169308572353561,3.058801360430318,-2.5421834597215853,0.37871191273573634,,
7.028041000000002,114.55453153833989,5.9089908365558745,141.79486557914453,4.408464150061358,5.285006941132877,-2.6757404396360487,2.760496080362397,-2.534037627144494,0.31597908231956173,,
7.037560000000013,100.22690154333604,7.281407713383287,141.6565119042832,3.9175294312126456,3.2758725820017736,-1.1945144813542419,2.0593745298212696,-1.9820061190122518,0.29128839344967195,,
7.047066000000001,89.77770397790533,8.496627972715686,140.8772033468659,2.8390573493919242,1.321278895973375,-0.7743468762255836,1.457734345309999,-1.4867794130696077,0.11971853740861237,,
7.056566000000004,83.44656834537388,9.231028559796291,140.26025199407823,1.571680728448813,0.4778162981651137,-1.4293066273881538,0.868060661571087,-0.9089617127157973,0.05953539504279442,,
7.066069999999996,81.9289465077817,9.46511158254789,141.20092572830228,1.216312705344821,0.5858516177570098,-1.0832356108079269,0.19666962030585503,-0.22597206342620316,0.22518021038751398,,
7.075587000000013,83.0155266822197,9.19113462950848,142.75267234404268,1.2246938814295414,1.408996028375166,-0.754539007626282,-0.14129680129142036,0.17525029573778803,0.26299944427620014,,
7.085098000000016,84.45015819308587,8.268268175153905,143.20894978866195,0.1600322958765566,1.669475568481203,-1.2708728421919575,-0.12175208304061341,0.31811400816153085,0.0355158812929713,,
7.094616000000002,86.02831536986977,6.594619756011229,142.0696705617204,-1.1776901727772002,0.5768660397145576,-1.4727365097687746,-0.05250757243429216,0.45623620608632026,-0.28091228107222643,,
7.104293000000013,86.22392158945017,4.332241620138136,139.21156167394508,0.5837040000950198,1.1409370788179152,0.013872010513954921,0.2499701695762449,0.375373457995247,-0.5876304028059358,,
7.113815000000017,81.85587901588829,2.0513308960670744,135.2967255413097,1.1301946068693398,0.6519946640741756,0.32489083395711577,0.9444353464348774,-0.2557446796527682,-0.7464365395405544,,
7.123328000000015,74.48153596529946,0.28953955798771325,132.65904220161147,3.0219650005721075,1.323600915505372,2.0288781892813996,1.2727617566209009,-0.8143517278053296,-0.5091448252160045,,
7.1326310000000035,62.66160913093492,-0.4681283216494749,131.78777614202053,3.518994580090658,1.1134550499257816,4.727762547615278,1.6982626718415381,-1.6456738396990065,-0.1895557504224239,,
7.14214800000002,45.04947654448445,-0.5172236408217197,131.55713333678204,2.880883547664581,0.7743789685842014,7.169127484268304,2.3503742562878083,-2.619685785825908,-0.08746963522773762,,
7.151655000000005,24.60868518156728,-0.8404104527709922,131.32546973092943,0.3221021995196669,-0.4833265798344091,7.816935487197709,2.7579871674652368,-3.015198906679862,-0.1035210896963629,,
7.161155000000008,3.161076555109652,-1.5741332139603654,131.47163929094245,-3.2116990406564265,-1.9706197908884513,7.229125568503756,2.951575686402085,-3.11240895825217,-0.0671109659894774,,
7.170680000000004,-18.692205935311385,-1.949051358311974,132.14764087488604,-5.505346055681997,-3.148219141476612,5.390188515190948,2.9752990307022547,-3.1973342368910336,-0.0019352036134163049,,
7.180191000000008,-40.097232389142874,-2.438358790820683,133.17322061331814,-5.908622019018321,-4.078638512645549,3.175440859440553,2.977407813080766,-3.070990390276616,0.0423029309645366,,
7.189515999999998,-59.34245928226787,-3.2850730436994113,131.35139955703704,-4.82693993915598,-3.7021519159405716,-0.09441530811086055,2.6445478272998417,-2.792905435796621,0.03895326127754036,,
7.1990260000000035,-76.42268075976736,-4.5532250986020175,129.56180506361304,-3.3097590181844287,-3.7377294067561784,-1.835318088796314,2.3515163435002733,-2.4775277974665224,-0.05907509447918872,,
7.208624000000015,-91.48872578640794,-6.454041384809328,127.90759273829568,-0.7289213654615815,-2.2498991170649245,-2.818145085057309,2.1289670127628737,-2.1443911541835545,-0.11837111044519229,,
7.218136000000015,-105.42485545843688,-8.762882912428028,126.4181926158938,0.1854481949897496,-1.6892311633460995,-3.610726797533393,1.99625813233503,-1.9626626706707306,-0.1850706133577754,,
7.227552000000003,-120.50322462896816,-11.079278548175228,125.05569687490382,-0.15930058869865182,-1.2772884983420543,-4.700890656406457,2.0651695614675045,-2.1830927764069847,-0.3282927697259424,,
7.237062000000009,-137.85236686929042,-12.670166257926276,123.74504011564649,-0.6554875391411839,-0.24072085690544417,-6.395997624978803,2.123057323694479,-2.667729991641889,-0.5152912283068687,,
7.246582000000018,-157.79442825006205,-12.738654055156637,122.19707773659091,-0.15581949155009636,2.224799506935629,-8.93493556687392,2.058546563544874,-3.301030326885728,-0.737982790469927,,
7.2562730000000215,-179.39276344101793,-11.595208256081634,122.4422338369579,2.668547939435251,5.167917039492759,-8.609648227696837,2.0786443847369,-3.6825444665842855,-0.9901616871777447,,
7.265791000000007,159.03201103610485,-10.33626030856533,122.18518066377577,5.241056646091818,6.14733400391911,-6.255700715265173,2.079488907240978,-3.6987091494730806,-1.092248648083514,,
7.2752120000000104,137.3912626025986,-9.47605057997615,121.04796657818346,7.135271537350697,4.690554116196551,-3.9943820381035042,2.079346200573855,-3.724302354657165,-0.972962898791596,,
7.284620000000018,115.75822594356852,-8.133814251746527,120.58495752689679,8.71082271407276,1.9402143676900376,-2.1857042320789994,1.9528527621554042,-3.8104459610722823,-0.7612673963758351,,
7.294134000000014,96.44260863273976,-5.450478138296401,119.46816428932948,7.886717440585951,-1.0124899376570553,-0.30572844941323973,1.451963009052168,-3.5882435268772688,-0.6885434285640281,,
7.303633000000019,81.22084314127251,-2.4704191317954978,117.54523099660616,4.756650687927541,-2.0230283722276767,0.2184864992111833,0.923792741684179,-2.9507623216855534,-0.6045160339307251,,
7.31314900000001,69.78297267989447,-0.25941834936662633,116.904992268787,2.015995738345136,-1.45448186358243,-0.3828259868672568,0.6512019581203133,-2.232348230586783,-0.1943416119251372,,
7.3228440000000035,61.19657541865075,1.4596758001287633,118.18923860937971,0.7229377511801544,-0.24604282181787854,-0.5176326307168198,0.48819793190080074,-1.6772774219756275,0.26237577072343926,,
7.332377000000008,54.653450956170495,2.3952416261862584,120.33895185980863,-0.05007938501574687,0.6732500560245199,-0.3352996873042081,0.4756417725373095,-1.227471416339619,0.4618042967927263,,
7.341867000000008,49.22379653840043,2.0797317814558567,121.89185893175893,-0.5316544014636826,1.6305277160148923,0.17264015451943018,0.6149561372169352,-0.8904878562337394,0.3412324554661416,,
7.35136700000001,44.017684729281704,0.9519553890331447,122.31460296934921,-0.8996457899352411,1.846575571943713,0.8752857668396892,0.7451619620989289,-0.7550766012073999,0.100728993332926,,
7.360897000000023,37.27415180168042,-0.19955063036591142,121.27220831282662,-0.25058690203581113,1.491128252863157,3.2472584834153855,0.908471320079209,-1.0177192836592484,-0.21029985945029134,,
7.370407999999998,26.930847809454523,-1.4375500235044665,118.15972904048617,0.42619903657118824,0.3276281176984716,6.427145572871236,1.244693252989285,-1.6666165045906025,-0.6604160519038611,,
7.379834000000017,13.317308737633073,-2.994920038678718,113.31891038924074,-0.234864368243191,-1.459027386780152,7.341571417312883,1.46890535135862,-2.309412057744607,-1.0771722341900491,,
7.389344000000023,-1.180505737414073,-5.245891080456083,105.75472113837483,-1.1154308591941018,-3.079166873683966,6.73001466834325,1.3496050777222748,-2.5970276708444815,-1.2740339118442867,,
7.398857000000021,-14.43108816917463,-8.898566267388318,100.026825540358,-2.2447970585127313,-3.0559342849973907,5.924839312925584,1.2617517249117998,-2.4208643670396297,-1.031375981654562,,
7.408365000000003,-26.4982703522986,-11.680367675814432,97.0555114635785,-2.8860971653202694,-1.406379223096093,4.4680471580879955,0.8685556760498494,-2.2781954529963486,-0.5752784300074425,,
7.417960000000022,-37.16106801471709,-11.442868347089158,95.60058896997273,-2.625922225083742,0.3142125783192044,2.7775493824141853,0.15239683195322742,-2.080212053088457,-0.25146074486213177,,
7.427461000000022,-45.242679211633195,-9.201665263612293,95.7025340829713,-1.524565981545922,1.6145383094197703,0.7557281358016777,-0.31188077791577296,-1.6151287183484377,0.20905680308999572,,
7.436791999999997,-50.394570604118876,-5.975947295287924,96.55044055155446,-1.40088236436453,1.8981581335373756,-0.3389849902252633,-0.546190357041254,-1.0665631201251946,0.5435476093708802,,
7.446323000000007,-53.694891575794536,-2.7142636312130457,96.9778835254318,-0.6959896446409025,0.6552045552689655,-1.378855707576344,-0.5764858449993857,-0.7114380295411028,0.5325858261822802,,
7.455898000000019,-55.909227332379764,-1.0926644322234944,96.95684698778804,0.8593227559203251,-0.6042421762732638,-2.494329369123283,-0.26859931583579505,-0.46607299112061146,0.45201944397598154,,
7.465330000000023,-57.27444194112246,-1.6178828290081086,96.10613942711954,1.0541388527635984,-1.5013478297317104,-2.762322405450018,0.14017694664112548,-0.2546151003338517,0.26118095103523375,,
