timestamp,Roll,Pitch,Yaw,Acc X,Acc Y,Acc Z,Gyro X,Gyro Y,Gyro Z,Acc Magnitude,Gyro Magnitude
0.0,42.774662562592056,-8.888444795950269,149.44747864687395,2.623990535736084,0.9442753195762634,-0.08784705400466919,,,,,
0.009512999999969907,35.64138102391479,-9.952324831499526,150.82131009700265,2.4209446907043457,1.2516521215438843,0.9262508749961853,,,,,
0.01904100000001563,25.76602154569082,-9.075134825438816,151.12928329453266,1.5647364854812622,2.084256649017334,1.8656898736953735,,,,,
0.038041999999904874,-1.254873517071997,-4.5036382104666,146.51973767061688,0.17856699228286743,2.50431227684021,2.4268980026245117,,,,,
0.047559999999975844,-15.913047146037448,-2.3240177105380395,142.5821680111136,-0.4758913516998291,2.40851092338562,1.9284008741378784,,,,,
0.05689699999993536,-30.371921657925533,-1.195465975323299,139.23302126946018,-0.5318222641944885,1.793569564819336,0.45262467861175537,,,,,
0.06650100000001657,-43.33111362346457,0.09747255326095015,136.9787600390079,0.03952309489250183,1.1108345985412598,-1.6748197078704834,,,,,
0.07600600000000668,-53.33211843373951,2.906311321673542,136.61744007342273,-0.1624971330165863,0.500020444393158,-4.726371765136719,,,,,
0.0854420000000573,-58.589627344566786,6.600969052321519,137.99653974592675,-1.2025192975997925,0.41786032915115356,-6.001041889190674,,,,,
0.09494700000004741,-58.79342688645065,9.76502570136369,141.14056146322798,-2.1960289478302,1.0488214492797852,-5.004762649536133,,,,,
0.11396799999988616,-49.4455136771042,10.14460548146323,147.58693423230952,-3.706932783126831,1.1337037086486816,-2.184843063354492,,,,,
0.12347099999988131,-40.67072681837211,6.925830522080598,148.2263742689163,-3.0805625915527344,1.3233697414398193,0.30089569091796875,,,,,
0.13315499999998792,-31.280744842228,3.4941685574714607,145.83825685367682,-1.7397058010101318,0.4172496497631073,0.49291616678237915,,,,,
0.14267199999994773,-20.558560768487915,1.6393057947205845,141.5758858117982,-0.2060890793800354,0.2579309642314911,1.0647623538970947,,,,,
0.152178000000049,-10.213803413689138,1.4734490134194949,137.69877607698234,1.2945420742034912,0.2155195027589798,2.2828798294067383,,,,,
0.1616989999999987,-2.346845212561828,1.9965070107403498,136.1362632141796,2.596877098083496,-0.6732190847396851,1.3209123611450195,,,,,
0.17101899999988746,4.374011968342406,2.02173761951181,137.63786491181125,3.1926774978637695,-0.605539083480835,0.4529010057449341,,,,,
0.18051700000000892,9.398683518191959,0.4587682024991692,141.5116132564995,3.0958359241485596,0.1129763275384903,0.6631691455841064,,,,,
0.19973000000004504,9.459081548478744,-5.224354591512686,150.14473334328397,2.2041516304016113,1.2674663066864014,1.8017733097076416,,,,,
0.2092569999999796,4.277079386552887,-5.969862518140905,151.98379706728738,1.5528839826583862,2.5665555000305176,3.5395350456237793,,,,,
0.23777300000006107,-32.1361122227941,-3.600660598287929,140.44843441286477,1.0963727235794067,3.1399805545806885,4.621532440185547,,,,,
0.2566110000000208,-62.96411617345911,-5.237681066851682,134.7511373588593,2.1275477409362793,2.388284683227539,2.3269004821777344,,,,,
0.26611800000000585,-78.02464604094584,-2.787752365372619,135.85967268170361,2.6980180740356445,2.614783763885498,1.4525222778320312,,,,,
0.28522300000008727,-107.73489728195375,11.596380817597195,137.18658934587614,0.8388096690177917,4.01341438293457,-0.111758291721344,,,,,
0.29475699999989047,-125.09799092653125,19.340218648879517,135.51780218354705,-1.6614500284194946,5.142147541046143,1.0609618425369263,,,,,
0.30416700000000674,-145.87958303775676,23.764185473423385,132.40284227769087,-4.5985822677612305,6.432191371917725,3.8878841400146484,,,,,
0.3136779999999817,-168.51172559309126,23.36156259369618,130.00322681532944,-4.655782699584961,6.829878807067871,4.610727310180664,,,,,
0.32318099999997685,169.873802949463,18.13420362350868,122.69543961952394,1.3942149877548218,6.187374591827393,3.1233980655670166,,,,,
0.34238200000004326,145.5543590938823,-12.9113360955037,100.87165492245252,-4.758673191070557,2.8793747425079346,-4.019516944885254,,,,,
0.3517190000000028,142.1582372880523,-20.41318387071103,112.32065350957627,-3.415276288986206,4.054344654083252,5.567469596862793,,,,,
0.36122599999998783,128.8963872033911,-13.95946587668567,133.85898997768643,2.3563666343688965,6.980337142944336,6.261767387390137,,,,,
0.38025900000002366,94.67811572390772,24.36286050214662,150.3121660605117,6.520288467407227,1.4374631643295288,-3.655386209487915,,,,,
0.3992769999999837,60.08850379091919,36.29053745742129,125.18309231544916,7.914972305297852,-0.6914010643959045,2.0349855422973633,,,,,
0.40878300000008494,46.16246575987261,20.832421650542887,123.5447713363312,6.241551876068115,2.1009063720703125,5.902057647705078,,,,,
0.418474999999944,31.346720586825146,1.999139695750348,133.28305454732643,5.276287078857422,5.45663595199585,7.126316070556641,,,,,
0.42799100000002,9.623177769294173,-6.920398798269754,151.8064969845843,4.456084728240967,7.819747447967529,7.012300968170166,,,,,
0.4375039999999899,-12.952064282072099,2.461117803983656,167.80484845090325,2.1282126903533936,8.040953636169434,7.003978729248047,,,,,
0.44682299999999486,-32.31674776432063,19.437755587726198,170.13360973160837,-1.7171823978424072,6.896625995635986,7.021491050720215,,,,,
0.4658469999999397,-81.70890876003465,24.96505239133474,138.30287686968023,1.719390869140625,6.229651927947998,7.803798198699951,,,,,
0.48495600000001104,-125.46335830577958,-1.0131699791639344,136.63162250628048,4.970634460449219,5.078957557678223,2.5967507362365723,,,,,
0.4944550000000163,-147.5028627176716,-0.3385260525755553,148.64464378057266,3.7399730682373047,4.4824724197387695,4.932673931121826,,,,,
0.5134909999999309,170.4972996282313,23.827353271370775,155.94425222366047,-2.920316457748413,1.5513334274291992,8.892317771911621,,,,,
0.5229030000000421,141.30112373639258,31.533096322333385,139.9818051666142,-5.4761481285095215,5.440974235534668,8.656354904174805,,,,,
0.5324279999999817,112.46069697077593,22.165108733449763,124.89701029034121,-2.01301908493042,5.672674179077148,8.335932731628418,,,,,
0.5421160000000782,91.54531651193255,6.093635832397516,129.12341356321778,-2.5540614128112793,6.843822956085205,7.526768684387207,,,,,
0.5611260000000584,54.572440902416815,-7.255991137948064,154.85026320902006,-0.6185899376869202,3.799598455429077,6.453643321990967,,,,,
0.5706259999999475,41.65042374914339,1.9696688654565424,162.57886616515557,-1.090187668800354,1.7825820446014404,2.3952159881591797,,,,,
0.5801440000000184,26.67580806406953,11.948749693717732,157.82250635974253,2.295416831970215,4.809780597686768,4.307161331176758,,,,,
0.5990059999999175,-15.189870892209814,12.384719390873652,130.52867350372864,3.096351146697998,1.5425543785095215,-0.8887994885444641,,,,,
0.6181970000000092,-37.990738739336486,-8.559505542909331,124.664518409508,1.7534674406051636,-0.8938423991203308,2.687857151031494,,,,,
0.6277219999999488,-47.56358516076531,-11.301294217806817,130.62210615329153,0.14858762919902802,0.1942654252052307,4.076201915740967,,,,,
0.6370360000000801,-58.15056176448778,-7.177912778684673,137.9284690822038,-0.07970448583364487,1.9673675298690796,4.685919284820557,,,,,
0.6465590000000248,-67.457236601551,1.8693989861041482,141.19130381068285,0.40134134888648987,2.0095348358154297,2.4801361560821533,,,,,
0.665569000000005,-72.10562273124522,15.101191186909453,136.29762786752931,0.9937877058982849,1.7347023487091064,2.3908095359802246,,,,,
0.675085000000081,-71.27143899224399,12.89530224285075,133.1644292377163,3.541084051132202,1.147194504737854,2.1241157054901123,,,,,
0.6845969999999397,-69.31199437751006,6.815208101562668,129.8160975767404,4.723810195922852,0.7016048431396484,1.9769716262817383,,,,,
0.694095999999945,-67.57730035474546,0.15477409247534601,127.57750123562501,4.226588249206543,0.43555977940559387,2.009974718093872,,,,,
0.7037849999999253,-65.57471035552915,-3.940525821269374,125.27963686526412,2.48295521736145,-1.8984614610671997,-0.21226462721824646,,,,,
0.7228139999999712,-57.16562457370881,1.1222080073801275,125.36152258804141,-2.452113389968872,-0.3272022604942322,0.5759461522102356,,,,,
0.7321469999999408,-56.79497739868983,8.409720059686151,127.64243648966325,-3.1578357219696045,0.26724839210510254,-0.793991208076477,,,,,
0.7511649999999008,-61.04199970946643,24.02851274690841,130.38307779923585,-2.7148277759552,1.2208315134048462,-4.679062366485596,,,,,
0.7606789999999819,-63.33436017349793,28.82468677134704,130.66209132388383,-2.0717732906341553,1.3772377967834473,-4.4828267097473145,,,,,
0.7796980000000531,-70.02289920287461,29.586995189397125,126.82246701175565,-2.1950790882110596,1.4170968532562256,-4.577728748321533,,,,,
0.7892070000000331,-72.17838808275147,25.562385797647043,126.05533654752936,-1.7447545528411865,1.39597487449646,-3.1510555744171143,,,,,
0.7987209999998868,-73.23273642466059,20.62111795013927,125.57522901642066,-1.648224949836731,1.2422943115234375,-2.378328323364258,,,,,
0.8082329999999729,-73.48618310126992,16.256355219615067,125.04599535460352,-1.7100636959075928,1.1612168550491333,-1.4567066431045532,,,,,
0.817747000000054,-73.59464406890751,13.453886268172866,123.78508630042924,-1.319164752960205,0.8590255975723267,-0.7184603214263916,,,,,
0.8272660000000087,-73.20960135813506,12.77128409066198,121.88585995984714,-0.8452205657958984,0.7811903953552246,-0.5991179943084717,,,,,
0.8462549999999283,-69.31786135264018,15.19382701127891,117.52252663997209,0.18478216230869293,1.0436859130859375,0.11643537878990173,,,,,
0.8652890000000752,-59.79057630585304,15.510468213169043,113.97380815558604,1.4738013744354248,0.9341439604759216,1.579047441482544,,,,,
0.8748120000000199,-53.854067896051056,13.44485592404209,111.56151754376648,1.8512177467346191,0.8263660669326782,2.6266486644744873,,,,,
0.8844970000000103,-48.32425515873217,10.067371352247191,108.60393952180067,2.1101627349853516,0.20353323221206665,2.817837715148926,,,,,
0.8940099999999802,-42.50571338061109,6.372583695599923,105.17259538971929,1.9286718368530273,-0.1607431173324585,2.8885748386383057,,,,,
0.9035220000000663,-36.319611324128104,3.352184208107836,101.65979116062434,1.387361764907837,0,3.897191047668457,,,,,
0.9130310000000463,-31.419060437888923,1.7525703032364282,99.37261961597041,0.885593056678772,-0.336364209651947,2.979342460632324,,,,,
0.932055999999875,-25.38573130580141,3.0860513325614747,98.48567567523706,0.2695910930633545,-0.5084457993507385,1.1208336353302002,,,,,
0.9509780000000774,-23.0056403900932,7.398557238937017,102.686221924169,-0.04042334854602814,-0.3330625295639038,-2.193373441696167,,,,,
0.9604779999999664,-21.489634750341885,9.200841099468011,104.36477752547738,-0.4306519627571106,-0.2611909508705139,-3.6047775745391846,,,,,
0.9795070000000123,-12.93327985270145,8.945997204836898,106.27539038316651,-1.6743249893188477,-0.7068478465080261,-3.0623135566711426,,,,,
0.9887579999999616,-3.651299339772579,6.895141980018769,105.63044381637594,-1.9579628705978394,-0.2568354606628418,-1.308175802230835,,,,,
1.0079439999999522,22.190907715524457,3.594876249898713,100.57416298657988,-1.7538095712661743,-0.0652586817741394,2.103116512298584,,,,,
1.017466000000013,37.453020972315294,3.2757871793939675,97.45807311807413,-1.0517748594284058,-0.0913432240486145,3.745767593383789,,,,,
1.026984000000084,52.892670692300435,3.700233578088712,95.31740834380824,-0.4292483925819397,-0.3176429867744446,4.0624680519104,,,,,
1.036293999999998,67.70860692165293,3.806499145999509,94.43557786488769,-0.14362367987632751,-0.6232436895370483,3.5159740447998047,,,,,
1.0460000000000491,81.61959135641906,2.6334685683147168,93.96172488937673,0.07356919348239899,-0.7466295957565308,3.0787291526794434,,,,,
1.0650180000000091,105.61119856613288,-2.680858544417086,91.68948026294903,-0.31034430861473083,-0.5579471588134766,2.057379961013794,,,,,
1.0745269999999891,115.0305409329256,-5.259449912274385,90.48852811638058,-0.407990962266922,-0.6583238840103149,1.2330334186553955,,,,,
1.0840269999998782,122.94620673033336,-7.247240507805014,89.56716587417957,-0.3990823030471802,-0.6887307167053223,0.5717495679855347,,,,,
1.0937209999999595,129.33700905524992,-8.835379118698722,89.57970824397088,-0.1852414608001709,-0.7693036794662476,-0.05449026823043823,,,,,
1.1127460000000156,137.94147695408157,-11.80926479963255,91.6569970237929,1.4430959224700928,-1.0943303108215332,-1.2184500694274902,,,,,
1.1222559999998794,140.6757658382284,-13.664519663608218,92.68914744353002,2.322330951690674,-1.1802945137023926,-1.4007415771484375,,,,,
1.1412880000000314,144.94811171227167,-16.43024963390416,91.73188842993552,3.103559970855713,-0.8030780553817749,-1.3761045932769775,,,,,
1.1507919999999103,146.01825893388258,-15.815309729152684,90.02212270429266,2.522914171218872,-1.1913756132125854,-1.4806160926818848,,,,,
1.1697110000000066,146.99451284923313,-9.954726966147135,87.92265544191694,0.11339528858661652,-0.5091561079025269,1.234259843826294,,,,,
1.1791610000000219,144.95091264664478,-5.293648801703864,88.53481883552513,-0.919033944606781,-1.0405163764953613,0.9851046800613403,,,,,
1.1980579999999463,140.61664291703616,4.165424838627621,92.48525963745061,-2.122307538986206,-0.9463130235671997,3.8815836906433105,,,,,
1.2077480000000378,136.31687227944258,8.114273038640407,93.33399793706772,-2.0481083393096924,-1.380540370941162,4.681684494018555,,,,,
1.2171860000000834,130.67794151649088,10.837549164657963,93.31648367721475,-2.389627456665039,-0.9370431900024414,5.372437477111816,,,,,
1.2266769999998814,122.77236753474833,12.25944565006877,92.05243772253516,-2.064678907394409,-0.34945622086524963,6.074611186981201,,,,,
1.2457039999999324,102.97334767835989,8.719526625657673,91.03594368485942,-1.365427017211914,0.7587190270423889,5.234460830688477,,,,,
1.2552180000000135,92.00942545675535,5.27382718630278,91.74424079880802,-0.7866268754005432,0.08557015657424927,3.3026890754699707,,,,,
1.274417000000085,74.48482115203232,-0.37055790388219184,94.93613642444853,-0.29488250613212585,0.5519047379493713,1.984924554824829,,,,,
1.2934390000000349,59.07311542287747,-1.8256814054313322,96.00951688942044,-0.029453890398144722,0.10080254077911377,0.7527577877044678,,,,,
1.3029599999999846,52.45187303947787,-1.6792193973892866,95.23318544889783,0.13877996802330017,0.270074725151062,0.7952604293823242,,,,,
1.3219679999999698,38.59139034616649,-2.847449344457608,93.50253453263902,1.0389962196350098,0.02770787477493286,0.6218064427375793,,,,,
1.34098199999994,22.72388493532271,-6.8566031252068775,94.57364100330003,1.8502953052520752,1.0171332359313965,1.8086588382720947,,,,,
1.3600340000000415,1.0530037059810702,-10.508781812938869,97.71761686186937,2.0629446506500244,2.2581872940063477,4.373996734619141,,,,,
1.3790469999999004,-24.7552943698102,-11.14387404626667,96.7647628446195,0.734689474105835,2.4872021675109863,4.419665336608887,,,,,
1.3885379999999259,-37.02893219297392,-11.89804341635065,94.25980733475488,0.25817784667015076,2.4053854942321777,3.9557862281799316,,,,,
1.4073969999999463,-60.06755806351796,-14.15923012171823,91.47707314819749,1.0902806520462036,1.5158518552780151,1.9814434051513672,,,,,
1.4168919999999616,-70.50014677261396,-12.898674885226859,92.26638633342672,1.8959102630615234,1.530369520187378,1.234777808189392,,,,,
1.4264080000000376,-80.15469847310291,-8.879695085692598,93.70061607463158,2.1068613529205322,1.749299168586731,0.20179620385169983,,,,,
1.4360019999999167,-88.93855231443789,-2.747448690953344,95.18709704408866,1.5953534841537476,2.260908365249634,-0.20454874634742737,,,,,
1.4644510000000537,-123.66032636384737,13.031632575340693,96.48909358408572,-3.9405622482299805,4.371280670166016,1.4227852821350098,,,,,
1.4739640000000236,-139.95431843759792,13.255527564511372,96.72358230287578,-4.828572750091553,4.84467887878418,3.0403666496276855,,,,,
1.512081999999964,156.87084382402543,-5.945640132967466,87.48066754902766,0.7134568691253662,1.6048991680145264,3.959465742111206,,,,,
1.5215100000000348,143.4869079456094,-10.898279589906613,93.95634761288925,0.24406950175762177,2.805436372756958,5.061291217803955,,,,,
1.5310219999998935,126.03923706441412,-9.068683926948928,101.13916622990179,1.974523663520813,3.38493275642395,4.3165974617004395,,,,,
1.5407239999999547,107.12476661123618,-3.1803583488997966,105.74771023034378,2.326875686645508,1.0498480796813965,1.3185861110687256,,,,,
1.550230000000056,91.39180403504089,2.8888053736982107,105.39376685918509,1.7611373662948608,0.906747579574585,2.343360424041748,,,,,
1.5597310000000562,74.41723914619483,5.401727756206724,100.71343390563581,2.3434340953826904,1.6796188354492188,4.394721031188965,,,,,
1.5787740000000667,35.690150522600646,-2.6347543322864704,96.23340246954527,1.9335522651672363,2.4200899600982666,6.570052146911621,,,,,
1.5977809999999408,-7.953257989054884,-7.6671762576273075,104.7888754621998,1.0271422863006592,4.7766923904418945,7.0095133781433105,,,,,
1.6072970000000169,-29.733287186642,-3.5567612254854106,106.70774348890941,-0.32635778188705444,5.032660484313965,7.124603748321533,,,,,
1.645234999999957,-105.82199216899156,-7.111938299815503,95.0811593630044,1.8107311725616455,3.1003847122192383,2.8181962966918945,,,,,
1.6547359999999571,-122.47681490142467,-8.796628457134918,97.74309862524079,2.5179715156555176,2.4894356727600098,2.289677143096924,,,,,
1.6737550000000283,-153.66384555770966,-1.7361329102682208,103.00488636169686,0.4249739646911621,2.4703900814056396,5.3565754890441895,,,,,
1.6832609999999022,-170.73814787403037,4.315445672586948,102.7389997179001,-1.6819573640823364,3.2993741035461426,8.375923156738281,,,,,
1.6927709999999934,168.99166539323184,8.634318998276004,100.59975375716849,-4.0569987297058105,3.6368558406829834,8.951485633850098,,,,,
1.7022079999999278,146.95237494434693,10.089880050899245,96.40421514837722,-4.469398021697998,4.029105186462402,8.741400718688965,,,,,
1.7117319999999836,124.81765152345523,6.200427798636698,93.49273188993011,-3.321049928665161,4.75390100479126,8.458346366882324,,,,,
1.7309170000000904,83.81205606872165,-2.6648347380967916,102.14195120375956,-1.3058286905288696,3.3577940464019775,7.837080955505371,,,,,
1.7404249999999593,63.853970947834235,-1.8264900781160707,106.92274626811637,1.4259918928146362,2.9829230308532715,6.3480448722839355,,,,,
1.7499379999999292,44.76224596447092,1.9203341055306924,109.8482282821524,2.279322862625122,1.9064784049987793,4.0579400062561035,,,,,
1.7594609999998738,27.13236376358226,4.936055716596352,108.57011619979288,1.9483468532562256,2.3021554946899414,3.1210379600524902,,,,,
1.768974999999955,9.03304302861352,4.922921943140515,104.34206177151029,1.6831341981887817,2.2465615272521973,2.7614805698394775,,,,,
1.787984999999935,-20.92502631030871,-2.0533040799994846,97.59350806715632,-1.0086967945098877,1.2800922393798828,2.3321452140808105,,,,,
1.8068309999998746,-45.54443630037907,-8.199542826071205,99.4531973334464,-1.333254337310791,1.101580023765564,1.6568574905395508,,,,,
1.816340000000082,-56.00384400906145,-6.849051641286471,100.84682029607667,-0.8582175970077515,1.7259684801101685,2.1732962131500244,,,,,
1.825853000000052,-65.16947869132136,-3.9165927713280166,100.9530306663864,0,1.9326016902923584,1.9663240909576416,,,,,
1.8353649999999107,-72.33533633940466,-1.3634396360723542,99.60372226567442,0.9360754489898682,1.5665569305419922,1.4049103260040283,,,,,
1.844869000000017,-76.86676435231804,-0.7104239676572954,97.31545654237473,1.4876993894577026,1.5381407737731934,1.0750995874404907,,,,,
1.8638969999999517,-80.56722550041628,-6.384878029785806,94.79842577569985,2.2396106719970703,0.9749119877815247,0.31595420837402344,,,,,
1.8734059999999317,-79.54634629105628,-10.109877200165478,94.8765586940635,2.2086377143859863,0.589850902557373,0.9114224314689636,,,,,
1.883094999999912,-77.17435370794902,-11.936580460829331,94.99964622178217,1.468734860420227,-0.10895001888275146,0.6922867894172668,,,,,
1.8926050000000032,-74.06120687838742,-10.774370553357095,95.48991714094385,0.43187981843948364,-0.27660655975341797,0.8673257827758789,,,,,
1.902117999999973,-71.30544564070308,-6.682636379731759,96.20259483641301,-0.4122261106967926,-0.4918866753578186,-0.2619624137878418,,,,,
1.9114469999999528,-67.74773777180198,-0.5387229626686195,97.37320128954846,-1.0517807006835938,0.3773587942123413,-0.3294110596179962,,,,,
1.920959000000039,-64.3263583645546,6.0583667599433975,98.51434522691605,-1.4254419803619385,1.0884459018707275,-0.42845892906188965,,,,,
1.939984000000095,-59.19204642002104,14.790070412805994,99.62980407494861,-1.1532961130142212,0.9304048418998718,-2.482940673828125,,,,,
1.9494919999999638,-57.2691873397192,15.899722994962977,99.17599584279584,-1.1741271018981934,0.8865702152252197,-3.0762994289398193,,,,,
1.9589880000000903,-56.08173978802924,15.225842479059438,98.20833188434642,-1.508037805557251,0.27899080514907837,-3.465618371963501,,,,,
1.987540000000081,-45.48911583618423,11.627847710156956,95.398018913951,-2.0837717056274414,-0.2879790663719177,-2.2095999717712402,,,,,
1.997045000000071,-39.757446222032144,11.864435629347419,94.72045113823222,-1.8952604532241821,-0.17393195629119873,-1.570467472076416,,,,,
2.0162579999998798,-26.875502931545658,12.646266891321062,93.57595903593015,-0.6465392112731934,-0.04161301255226135,-0.5860615968704224,,,,,
2.025769999999966,-20.198755030286367,12.339818212178605,92.58972219704818,0,-0.050807446241378784,-0.12925070524215698,,,,,
2.035276000000067,-13.667451960175026,11.362608517486194,90.97269083899941,0.4507509171962738,-0.03894205391407013,0.4594935178756714,,,,,
2.044777999999951,-7.7991284440688045,9.934798454106355,88.67584483525854,0.6209456920623779,-0.20974256098270416,0.6999519467353821,,,,,
2.063801999999896,1.9206820227769172,6.688793062250977,82.69110178268002,0.5099329352378845,-0.34418025612831116,1.232172966003418,,,,,
2.073308999999881,5.00877940166451,5.186785360660949,79.6494817770943,0.4460105895996094,-0.43011000752449036,1.1929352283477783,,,,,
2.0923239999999623,6.678694086494155,2.4880392625082264,74.90781975385445,0.412874698638916,0.1564730703830719,1.9242713451385498,,,,,
2.1018360000000484,4.602482804241022,1.4976047386180205,73.5671209720205,0.4590199589729309,0.21030113101005554,1.7519888877868652,,,,,
2.1208469999999124,-2.828143726155876,1.1906962774004297,72.79154574870145,0.5317389369010925,1.187399983406067,1.8921046257019043,,,,,
2.1398810000000594,-14.040903454946934,2.994203081420582,73.15547039362873,0.6427724957466125,0.8967061042785645,0.5989694595336914,,,,,
2.149392999999918,-18.855492826398105,4.1651693412047495,73.38151048090569,0.5987759828567505,1.1342082023620605,0.3145914673805237,,,,,
2.1682989999999336,-27.630001474344816,6.5624944890143535,73.48773234514418,0.24373292922973633,0.7376197576522827,-1.4640417098999023,,,,,
2.177823999999873,-30.766231172255797,7.680313595661887,73.35561494581994,-0.10191091895103455,0.5518302321434021,-2.3638033866882324,,,,,
2.1873270000000957,-32.89410738584759,8.71133831661893,73.06366043498821,-0.5296245217323303,0.1144600510597229,-3.8296220302581787,,,,,
2.196852999999919,-33.204954575825774,9.563246893365418,72.68037306230697,-1.1922725439071655,-0.05509060621261597,-4.5886759757995605,,,,,
2.2062690000000202,-31.681467138623795,9.928073800789893,72.210327371967,-1.9367780685424805,-0.6089848875999451,-4.1150689125061035,,,,,
2.2349930000000313,-9.626202769390243,9.209817717443363,67.79956184481593,-1.3545249700546265,-0.2829868793487549,-0.4378148913383484,,,,,
2.2444980000000214,1.4451367081124953,8.624095778050341,65.08583360557769,-0.1336553692817688,-0.33240175247192383,0.2665388584136963,,,,,
2.2635149999998703,26.72061090247593,7.226004159040585,60.417594191785064,1.084354281425476,-0.4843244254589081,2.3236992359161377,,,,,
2.2730309999999463,39.3155497421676,5.778329472708026,59.03039980833776,0.8013150691986084,-0.721429169178009,1.991086721420288,,,,,
2.2825290000000678,52.02131474251582,3.4244740918891687,57.91777644424419,0.08395467698574066,-0.2937520742416382,2.7343428134918213,,,,,
2.2920509999999013,62.99957075937822,0.7862699951066867,56.68820936096754,-0.5642982721328735,-0.4309370517730713,2.4776058197021484,,,,,
2.310884999999871,80.07094357240554,-2.6177781786099965,53.40838460595269,-0.5015153288841248,-0.6208627223968506,1.0436986684799194,,,,,
2.3299110000000383,88.70407823599788,-2.095699609307511,50.536304128596065,0.3591589331626892,-1.062294363975525,0.21664610505104065,,,,,
2.3394160000000284,89.5897320000723,-1.4684958927402758,49.07482480486592,0.725132405757904,-1.182896375656128,-0.35692623257637024,,,,,
2.348950000000059,89.14749246217426,-1.4075405294908305,47.427889727877265,0.8455130457878113,-0.908102810382843,0.04430178925395012,,,,,
2.368146999999908,84.1194947334327,-3.3555135321522083,43.35807058357167,0.48137611150741577,-0.14963245391845703,-0.06238967180252075,,,,,
2.3776339999999436,79.39248136938406,-4.509976367342086,41.31915747262278,0,0.4158637523651123,0.5332094430923462,,,,,
2.3871469999999135,72.81297652326273,-4.795272211448828,39.60473567986324,-0.5121518969535828,0.7559388279914856,0.3655967712402344,,,,,
2.4061779999999544,55.7637537005378,-1.405467510412417,35.86271880354438,-0.7470386624336243,0.7272911667823792,0.48776185512542725,,,,,
2.4156920000000355,46.41557366169638,1.5075863631919353,33.04513596305976,-0.34283363819122314,0.8657329678535461,0.71537184715271,,,,,
2.4251950000000306,36.27539421162515,4.286618740741375,29.875467993850492,0.20366035401821136,0.6226332783699036,0.22736436128616333,,,,,
2.4347179999999753,26.21124045268334,6.362022824206815,26.958675103447472,0.6316285133361816,0.5378267765045166,0.1214250922203064,,,,,
2.4631329999999707,2.6437677465156613,8.105426110894125,22.610437322544925,0.7906786203384399,-0.22847113013267517,-2.2511439323425293,,,,,
2.4726530000000366,0.27096190127763525,8.203392397444544,22.177449087127012,0.6974570155143738,-0.23965787887573242,-2.7631258964538574,,,,,
2.4915790000000015,4.519539960420479,8.853457549047658,20.383000567311846,1.4997377395629883,-1.015392780303955,-1.0947794914245605,,,,,
2.5010919999999714,11.15496361159695,9.657856778649204,18.829775215446585,1.9889215230941772,-1.4724127054214478,-0.624798059463501,,,,,
2.5106060000000525,21.08294644240994,10.240647984405335,17.08328810982764,2.3442111015319824,-0.7681704759597778,0.7126312255859375,,,,,
2.5202919999999267,31.973841496067582,10.485883627647102,15.3215588043576,2.1878740787506104,-0.58387291431427,2.222805976867676,,,,,
2.5298069999998916,42.58491957828471,10.4040333949044,13.689268518163194,1.4591038227081299,-1.0054857730865479,2.168250560760498,,,,,
2.548821000000089,63.509144349750095,9.415961961322857,10.361897043980582,-0.48428258299827576,-0.6052002906799316,2.527648687362671,,,,,
2.577182999999877,85.33596955396925,12.347888546016101,7.126783843156796,-0.10628896951675415,-0.8853416442871094,1.2636690139770508,,,,,
2.5867860000000746,88.73921519489453,14.565246274448127,6.662737169654174,0.5265039205551147,-1.1627789735794067,0.33360910415649414,,,,,
2.6154139999998733,86.01708767191752,17.87170056173844,1.6412195519891761,-1.684058666229248,-0.44506627321243286,-0.10867707431316376,,,,,
2.6249179999999797,80.44501059778307,16.94791899082339,-0.9289617242833328,-2.753783941268921,0.1834092140197754,0.6016327738761902,,,,,
2.634424000000081,72.1706175182557,15.34465632776251,-2.4563281137394632,-3.052751064300537,0.9041550159454346,1.1883004903793335,,,,,
2.643931000000066,61.19160042723957,13.789984774459658,-2.4794543421712696,-2.3245933055877686,0.6931315660476685,0.8465825319290161,,,,,
2.6629680000000917,38.412361605150494,12.632477857087752,-0.22969350755215598,-0.045070111751556396,2.0201234817504883,2.7563090324401855,,,,,
2.672456999999895,24.624575622952186,13.370295858921985,-0.4781755903498865,0.9986348748207092,1.9825018644332886,1.910848617553711,,,,,
2.681980000000067,10.387253033228909,14.687293406417462,-2.917100916951744,1.032427430152893,1.8137645721435547,1.2783089876174927,,,,,
2.6914950000000317,-3.842471986388156,15.029357786472879,-7.890129640590236,0.3262123465538025,2.338625907897949,0.9625956416130066,,,,,
2.7104329999999663,-30.61755819308996,9.236757129251885,-20.695388340107,-0.14211228489875793,1.4003585577011108,-1.214139699935913,,,,,
2.7199350000000777,-40.19201941146864,5.166788200123112,-25.728200800568978,0.6591627597808838,1.2152035236358643,-1.4759670495986938,,,,,
2.7388679999999113,-56.44481754701027,2.025752742111277,-33.09292053961531,4.1211676597595215,1.3342721462249756,-1.3329145908355713,,,,,
2.7483669999999165,-63.66977105491955,3.5177524815966557,-36.232484690758085,5.700753688812256,1.8949105739593506,-1.7411195039749146,,,,,
2.7769049999999424,-74.26748981874388,1.6334674539399316,-38.60280302889752,3.0385210514068604,1.0519816875457764,-2.4889490604400635,,,,,
2.786403000000064,-72.96366334273083,-1.0416368374014988,-38.13603701905428,1.462148904800415,1.9093334674835205,-0.11233624815940857,,,,,
2.8054389999999785,-70.92567925920137,-3.1841951812139646,-37.30009978982724,-0.5167673826217651,0.5352734923362732,-0.6932546496391296,,,,,
2.8149530000000595,-67.5913756350412,-1.5439868191985302,-37.789666292776296,-0.8546220660209656,1.0497127771377563,0.3262527883052826,,,,,
2.82463000000007,-64.82065092768076,1.5839584885973255,-38.787133592993484,-0.21974369883537292,0.2626064419746399,-0.7347539067268372,,,,,
2.8341499999999087,-60.02309892811907,5.419821429002402,-39.28440990551885,0.4764169752597809,0.6010111570358276,0.09218847751617432,,,,,
2.85316499999999,-49.06099255884986,11.2188809544814,-37.319852421297476,0.9401923418045044,-0.2425655722618103,-0.4212559461593628,,,,,
2.8721929999999247,-34.131363097317426,10.341357681020222,-32.599099120048955,-1.7115334272384644,0.7008218765258789,2.990274429321289,,,,,
2.881697000000031,-28.521934842727763,7.818853632631555,-31.18423902561278,-3.461344003677368,-0.0381588339805603,2.3669519424438477,,,,,
2.891206000000011,-22.74244631271066,5.267989327135853,-31.168448776156755,-5.25022029876709,0.18941429257392883,3.177845001220703,,,,,
2.9007050000000163,-19.093009491295547,3.989980166877033,-33.38108971832652,-5.0750813484191895,-0.42413878440856934,2.3633806705474854,,,,,
2.910237000000052,-17.042026377765147,3.412188172656017,-36.63650449654459,-1.9229155778884888,-0.5804144144058228,1.8612196445465088,,,,,
2.919738000000052,-16.867051886121804,4.099687668115995,-39.05787988331952,-0.1551050841808319,-0.11678969860076904,2.2888145446777344,,,,,
2.929257000000007,-19.425298731079014,4.979917408582886,-39.81649542741833,0.9777463674545288,-0.517942488193512,-0.12418192625045776,,,,,
2.9385819999999967,-21.81533273282235,4.710472351687801,-38.710031827136916,1.7279913425445557,0,0,,,,,
2.9480889999999818,-24.823569161793788,4.14690641534082,-37.14435179972529,1.8516417741775513,0.7346364855766296,0.4154992699623108,,,,,
2.976621000000023,-36.54024620549046,-3.041355108869994,-39.78657119346348,1.9818446636199951,1.399298906326294,-1.688853144645691,,,,,
3.005155000000059,-43.90040539488726,-16.589372565684144,-49.136892272031155,5.003849983215332,0.6874784827232361,-2.135899066925049,,,,,
3.0146649999999227,-45.65266822217308,-18.609045347732263,-49.34955539796846,4.5075907707214355,0.7660346031188965,-2.0772571563720703,,,,,
3.0336879999999837,-48.60789088563668,-17.959572971424762,-44.57497509308008,1.7650697231292725,0.6921525001525879,-2.07887601852417,,,,,
3.05279100000007,-46.72765250637523,-15.52174782337251,-38.56239530652497,-0.6378035545349121,0.8738158941268921,-0.9174895286560059,,,,,
3.06221800000003,-44.241932845495015,-14.863327895128613,-36.83268339769739,-1.0322294235229492,0.6009123921394348,-0.7503982782363892,,,,,
3.081326999999874,-35.56252984455051,-13.19905912713262,-37.19656106052602,-0.5496909618377686,0.12897881865501404,0.46722638607025146,,,,,
3.090917999999874,-31.046841906904632,-11.551927448637962,-37.89631147301901,0.17991892993450165,-0.5136758685112,0.5073330998420715,,,,,
3.100447999999915,-26.17299286613378,-9.17801049443253,-37.75973355478481,0.5057095885276794,-0.7214316725730896,0.4699277877807617,,,,,
3.109952999999905,-20.981450220350002,-6.501756955663733,-36.256044620394725,0.35975730419158936,-0.3648933172225952,0.9802996516227722,,,,,
3.128975999999966,-12.568097426291219,-2.7107831674528593,-30.013235731866956,-1.010414719581604,-0.16085371375083923,1.1989047527313232,,,,,
3.138486000000057,-9.479482885101005,-2.2226723632166148,-27.011409696351013,-1.8917618989944458,0.259177565574646,1.6937929391860962,,,,,
3.147993999999926,-8.153962991132087,-2.318188454767084,-25.385460438468762,-2.4353537559509277,0.29949623346328735,1.6641995906829834,,,,,
3.157500999999911,-8.150587264500889,-2.380950836890295,-25.500124373348378,-2.544053316116333,0.2969915568828583,1.3289796113967896,,,,,
3.1765210000000934,-11.806099193957744,-2.215047277178539,-29.488420926815884,-1.1801248788833618,0.41792410612106323,1.0464015007019043,,,,,
3.186046000000033,-15.432965060357047,-2.182037078314175,-31.816311787725084,-0.13376456499099731,0.3957645297050476,0.5769641995429993,,,,,
3.1955659999998716,-19.61286836747369,-2.2480732765708282,-33.541522111077924,0.7703225016593933,0.4106611907482147,-0.37236708402633667,,,,,
3.214386999999988,-27.93077708295036,-2.921292560426489,-34.87277801752755,2.3545756340026855,0.832787036895752,-1.747833251953125,,,,,
3.223899000000074,-31.88090316769856,-3.6034293732532827,-35.08998782656083,3.1786203384399414,1.0665996074676514,-2.4072933197021484,,,,,
3.2425459999999475,-36.070427965987,-6.677545542959678,-36.117914311721606,4.1104021072387695,0.6670414805412292,-2.90179181098938,,,,,
3.252422000000024,-35.58555838949132,-8.791064963869115,-36.341599565749064,3.7075674533843994,0.3374447226524353,-2.1584744453430176,,,,,
3.2714359999999942,-32.70040728581112,-11.466111788458376,-35.03811931169532,1.671984314918518,-0.23695021867752075,-2.413280963897705,,,,,
3.2809749999998985,-28.95844954171595,-11.83258951449584,-33.608991012171145,0.6394489407539368,0.04220739006996155,-1.3809223175048828,,,,,
3.2906450000000405,-24.873749993608644,-11.652250304988552,-31.967901688653075,-0.23293805122375488,0.10686561465263367,-0.2844029664993286,,,,,
3.299972000000025,-21.06376907267054,-10.659374713409631,-30.720941357625502,-0.9891539812088013,-0.6065788269042969,-1.208967685699463,,,,,
3.319185999999945,-10.547297562193055,-6.764804600349597,-30.073018142747333,-0.9423999786376953,0.11120852828025818,0.9416322708129883,,,,,
3.3477060000000165,-0.40717371970537697,2.4385551737370177,-32.555126349919384,0.8817108869552612,-0.3418121337890625,1.3482129573822021,,,,,
3.366741999999931,-0.03838868633761042,7.295308169708542,-33.100029163307944,0.7024755477905273,-0.4641546905040741,1.1894733905792236,,,,,
3.3762329999999565,-1.6345027509993775,8.192862008520637,-32.89662125214249,0.19146287441253662,0.05510328710079193,1.8293201923370361,,,,,
3.3952540000000226,-9.577847215636817,5.736906284927709,-32.266139945766895,-1.9534330368041992,0.5266093015670776,1.1214677095413208,,,,,
3.4142850000000635,-18.143225948325767,1.66815464970432,-32.115375345946106,-3.052088975906372,1.6340677738189697,1.7947413921356201,,,,,
3.4235980000000836,-23.616731551096247,1.1479890128891088,-33.330478948616026,-2.729578971862793,0.9399370551109314,0.26141566038131714,,,,,
3.433119999999917,-27.520765295846484,1.0126434558852109,-35.145065877008754,-1.4912034273147583,0.935809850692749,0.46455907821655273,,,,,
3.452154999999948,-33.4517887734902,0.9542977056472101,-40.098563821645214,0.7440372705459595,1.0118498802185059,-0.7853425741195679,,,,,
3.4616490000000795,-35.3872756400723,-0.3684230743496771,-42.22116314716999,1.67057466506958,0.8770449757575989,-0.9051493406295776,,,,,
3.480679000000009,-37.337962452856985,-4.0962183725497745,-45.280107353115845,2.121805429458618,0.5737746357917786,-1.3894541263580322,,,,,
3.490182999999888,-37.4195203892013,-6.270091469278061,-45.88157294208463,2.2342841625213623,0.5493919849395752,-1.212134599685669,,,,,
3.499710999999934,-37.60641739091782,-8.135271645977872,-46.05913022610088,2.2636849880218506,0.5736247897148132,-1.2576680183410645,,,,,
3.509215999999924,-38.23290082498406,-9.472713272111505,-46.10931674830088,2.4777605533599854,0.18491443991661072,-2.2063798904418945,,,,,
3.528229999999894,-37.562900935159895,-11.072650834209497,-45.30735648303687,3.9913582801818848,-0.16297674179077148,-2.011881113052368,,,,,
3.537736999999879,-37.044254151031964,-11.70280841245819,-43.593701466937624,4.282636642456055,-0.7328006029129028,-2.6596970558166504,,,,,
3.5472560000000612,-36.31454065724191,-12.120414271890692,-40.531162139687325,3.7938411235809326,-0.14711874723434448,-1.5457407236099243,,,,,
3.556765999999925,-36.74405604324637,-12.108972029927388,-36.921027367485394,2.5332887172698975,-0.08605796098709106,-1.0731679201126099,,,,,
3.5662629999999353,-37.116534805983534,-12.127548016870879,-33.37291153338567,1.4522955417633057,-0.5211923122406006,-1.555579662322998,,,,,
3.575992999999926,-36.149400807189636,-12.174140468841689,-29.959027239931885,0.7551236152648926,0.08326670527458191,-0.44241753220558167,,,,,
3.595010000000002,-35.59527829016628,-9.971345960564824,-24.80881275401988,-0.2660667300224304,-0.4083337187767029,-0.7172603607177734,,,,,
3.604513999999881,-34.88449393351515,-7.899035476161962,-22.422814056092655,-0.08219152688980103,-0.0983850359916687,-0.2621689438819885,,,,,
3.6140139999999974,-34.61517512578622,-4.994452968437936,-19.996365383659704,0.4640405774116516,-0.03943604230880737,-0.6357659101486206,,,,,
3.623354999999947,-34.47205432595157,-1.3350185260950018,-17.503726488443363,0.7848039269447327,0.09910506010055542,-0.8440762758255005,,,,,
3.6615669999998772,-35.62855566714715,5.815018357441632,-4.102115334008032,-1.561919093132019,0.9370182752609253,1.896496057510376,,,,,
3.6899089999999433,-37.79670627501611,4.2856708430220145,1.0736823903480237,-3.5251641273498535,0.6292465329170227,1.5943667888641357,,,,,
3.6995999999999185,-36.99498434638484,4.248181156040461,0.6942615593480478,-2.9350931644439697,1.2030545473098755,2.6352829933166504,,,,,
3.718622000000096,-38.042043360374386,4.249163021153324,-2.458695009218945,-0.18056032061576843,-0.025910675525665283,0.38232600688934326,,,,,
3.7281350000000657,-37.911812124949435,3.6721523491083565,-4.023942829372528,0.7143779397010803,0.5590623617172241,1.179966926574707,,,,,
3.7376429999999345,-39.43503932616091,2.2046587040631533,-4.968510725540052,1.3263435363769531,0.04552501440048218,0.23175710439682007,,,,,
3.7471510000000308,-41.140222424207764,0.4126531238674896,-5.467315011285405,0.9061059951782227,-0.3119543790817261,-0.4556562602519989,,,,,
3.7566719999999805,-42.251191159744785,-1.8404854946154194,-5.474514830600211,0.13376754522323608,0.19653970003128052,-0.6651462316513062,,,,,
3.766010000000051,-43.94745278866829,-4.4231338902462785,-5.406920761690142,-0.29290270805358887,0.12713009119033813,-1.4592998027801514,,,,,
3.794533999999885,-44.50806268768608,-8.643140036175422,-9.95083542734685,2.380566358566284,-0.08697342872619629,-4.021428108215332,,,,,
3.8040349999998853,-42.03710457480655,-8.210558298323146,-12.62002298998333,5.101810932159424,-1.229182243347168,-5.524306297302246,,,,,
3.8135449999999764,-37.46096982705722,-7.254512358355696,-13.467088368483052,6.414003372192383,0.0536540150642395,-2.960055112838745,,,,,
3.8230590000000575,-34.0541136639725,-6.53247805571605,-11.679682034676786,5.283143997192383,-1.037451982498169,-3.655367851257324,,,,,
3.8325609999999415,-30.33298503844912,-6.126003769916161,-7.747388893387367,2.4851787090301514,0.10782340168952942,-0.722219705581665,,,,,
3.8420849999999973,-26.22845778426171,-5.760524536497242,-4.002757888105527,-0.0531456395983696,-0.6180757284164429,-2.2645392417907715,,,,,
3.8610980000000836,-13.35002756066123,-5.505347880017264,-0.7765660416936793,-2.5558085441589355,0.5272719860076904,0.9133071899414062,,,,,
3.889807000000019,2.116955693151537,2.0164336495988344,-7.462683515438677,0.21383298933506012,-0.34024927020072937,1.9437000751495361,,,,,
3.918331999999964,3.590335311417779,6.70933695314646,-8.363359371582911,0,0.09438663721084595,1.8074970245361328,,,,,
3.9278629999998884,0.6793575087309973,5.602398398049592,-6.498683122843866,-1.3723676204681396,0.48155492544174194,2.320085287094116,,,,,
3.937349999999924,-3.244058229081015,4.418004578074662,-4.539671363639536,-2.937502384185791,1.2157270908355713,2.68141508102417,,,,,
3.9468759999999747,-8.427323781662995,3.5234388995294714,-3.3417749614289938,-3.691927194595337,2.03524112701416,3.2509748935699463,,,,,
3.965897000000041,-21.11333076784126,3.232049824363862,-4.559577645531776,-2.1154017448425293,1.165698528289795,1.1020126342773438,,,,,
3.975398999999925,-26.171324426736867,3.1068818692008833,-6.366372579893211,-0.8317053914070129,1.5734918117523193,1.237837553024292,,,,,
3.9942519999999604,-36.293541014183305,0.23503444892897726,-9.294689283634236,1.2690025568008423,0.9530758857727051,-0.9773772358894348,,,,,
4.003760000000057,-39.70258546924403,-2.063831566432499,-9.838670274679782,1.3623113632202148,1.1584055423736572,-1.3401117324829102,,,,,
4.032367000000022,-45.741616869746466,-10.341154823104496,-9.218128746221215,0.7174810171127319,0.356415718793869,-3.9138431549072266,,,,,
4.041797999999972,-44.93632421673653,-12.12425874503925,-10.185328526750126,0.8318596482276917,0.06693017482757568,-3.427976131439209,,,,,
4.0608199999999215,-38.482046352619754,-14.390876944856302,-14.50263413848346,2.59867000579834,-0.08581793308258057,-2.797598123550415,,,,,
4.070324000000028,-33.70867911232181,-14.580530555238077,-17.301571332267343,3.919893264770508,-0.45356112718582153,-1.7782392501831055,,,,,
4.089351999999963,-26.864910386749706,-13.916693741428082,-19.501033235121707,2.411259651184082,-0.14778095483779907,-0.8904927372932434,,,,,
4.098862000000054,-25.042715091208983,-13.895070070954665,-19.075615702840253,0.9793464541435242,-1.0043854713439941,-2.0543274879455566,,,,,
4.118060000000014,-19.07333224536859,-12.828795811485547,-18.42928651760302,-0.9167076945304871,0.057619720697402954,0.27938538789749146,,,,,
4.127398000000085,-17.57561717079274,-11.412423851878211,-19.222415994110637,-0.9810843467712402,-0.6191896200180054,-0.8176957368850708,,,,,
4.13708100000008,-15.111683268126427,-9.745723197012483,-20.71930747284535,-0.2965868413448334,-0.08390334248542786,0.5909427404403687,,,,,
4.14659400000005,-13.838441634515965,-7.84476329661879,-22.90862690470879,0.2701077461242676,-0.07536597549915314,0.8662441968917847,,,,,
4.156095999999934,-13.75315930447315,-6.411003701945627,-25.32073292279933,0.4852849245071411,-0.45035552978515625,0.15282917022705078,,,,,
4.165608999999904,-14.04467681987578,-5.860042517295809,-27.53768045759508,0.06590446084737778,0.1284513622522354,2.0764989852905273,,,,,
4.175132000000076,-16.33652125076428,-6.338402491075757,-29.29410917211864,-0.9213343858718872,0.23471319675445557,2.643144130706787,,,,,
4.18463799999995,-19.855187335863043,-7.812436531042615,-30.160662990875583,-2.137368679046631,0.11796920001506805,3.3776063919067383,,,,,
4.194146000000046,-22.89892459463114,-9.81612974451627,-29.81602175000735,-2.7948949337005615,-0.2371869683265686,1.8565226793289185,,,,,
4.203481000000011,-23.937138096307923,-11.225808136883808,-28.666128423552003,-2.742982864379883,0.4886432886123657,1.1550242900848389,,,,,
4.212993999999981,-24.55142914224861,-11.332969938950473,-27.84630792586074,-2.687723159790039,0.6364350914955139,0.7661128640174866,,,,,
4.222494999999981,-24.480560391008282,-11.330936925363797,-27.653684725879618,-1.9898483753204346,0.4018256962299347,0.06117427349090576,,,,,
4.232213000000002,-23.377931281996318,-12.231867914141237,-28.282337748469082,-0.4629341959953308,0.4472161829471588,0.1977350115776062,,,,,
4.251029999999901,-20.86569435830254,-16.37095216898114,-32.671718358508585,1.744741678237915,-0.08614721894264221,-1.7486002445220947,,,,,
4.270050000000083,-18.604919867281737,-23.551924820765347,-37.31026650204002,2.9610788822174072,-0.4478035271167755,-2.332253932952881,,,,,
4.2795770000000175,-18.273008521609427,-26.839480788200245,-38.30803620889706,3.068197011947632,-0.30167800188064575,-2.9370360374450684,,,,,
4.289070000000038,-19.294734975338347,-29.25842693155729,-37.98377166909175,2.9286627769470215,-0.23364263772964478,-3.2051870822906494,,,,,
4.2985879999998815,-21.18458293273454,-30.48581747683913,-37.02553836173578,2.5135669708251953,0.09524019062519073,-2.7916665077209473,,,,,
4.317598999999973,-26.12877343762982,-29.434157890261176,-36.32614788973525,1.5720305442810059,0.6624945402145386,-2.408421277999878,,,,,
4.327121000000034,-27.776814288957926,-28.063342128151145,-37.19998224209073,1.185305118560791,0.7324227690696716,-2.5392565727233887,,,,,
4.336628000000019,-28.455345389198907,-26.723423690198178,-38.46690560268113,1.0809191465377808,1.1659756898880005,-1.1944856643676758,,,,,
4.346136999999999,-29.539956392454183,-25.2155928502787,-39.66055110247389,1.0821559429168701,0.7309184074401855,-1.4232439994812012,,,,,
4.355649999999969,-29.90667305985832,-23.339146774423455,-40.17666545270184,1.056897521018982,0.4423152208328247,-1.3891239166259766,,,,,
4.365162999999939,-29.241957498004798,-20.941735842905345,-39.699621523598196,0.9297747611999512,0.8450756072998047,-0.521243155002594,,,,,
4.374679000000015,-28.700836212452096,-17.96435683779228,-38.1949954324381,0.595986008644104,0.8129882216453552,-0.5609895586967468,,,,,
4.403381000000081,-23.773767600938957,-8.654060938630488,-30.26803803695984,-1.4072344303131104,0.8539939522743225,0.6717174649238586,,,,,
4.412896000000046,-20.79377903451498,-6.505122407594252,-27.901138992176758,-2.2489051818847656,0.8078973889350891,1.2758474349975586,,,,,
4.422397000000046,-17.391331749043907,-5.200236283150887,-26.168642578975565,-2.882340908050537,0.5805305242538452,1.8855177164077759,,,,,
4.431904000000031,-13.697447539837542,-4.444997365409505,-25.306549681462766,-3.2454395294189453,0.12580323219299316,2.2275872230529785,,,,,
4.460442000000057,-3.2480494204568884,-3.7938220221597976,-27.176306044605017,-1.624179482460022,-0.7749550938606262,1.782962679862976,,,,,
4.479446000000053,-0.18214360294702567,-6.271539237095286,-29.187262447194797,0.04289470613002777,-0.48239654302597046,1.19346284866333,,,,,
4.488973999999871,-0.8655094189043914,-9.12417340956359,-29.760173627722182,0.2848420739173889,-0.8127174377441406,0.19180208444595337,,,,,
4.498481999999967,-1.8455524325827208,-12.810832544397398,-30.09991689231262,0.08863408863544464,-0.41874247789382935,0.3855111002922058,,,,,
4.526843999999983,-9.211822267552375,-25.446633042611833,-30.93459333670022,1.1800110340118408,0,-2.982168674468994,,,,,
4.536346999999978,-12.30356027000002,-28.49921280506504,-31.040646660423747,2.3988418579101562,0.13009852170944214,-4.260889053344727,,,,,
4.545847999999978,-15.659232056320267,-30.210672499084346,-31.21387975102076,3.456139087677002,0.6658234596252441,-3.9453978538513184,,,,,
4.555366999999933,-19.29725326774497,-31.17097207736779,-31.893865999406785,3.756470203399658,0.5887203216552734,-4.254583358764648,,,,,
4.564881999999898,-21.496653436454583,-32.0408752359402,-32.79748839403973,3.0976576805114746,0.7630000710487366,-4.031706809997559,,,,,
4.583894999999984,-24.851769848348713,-32.19274846395828,-33.54641835074875,1.019458293914795,0.6845930814743042,-1.808267593383789,,,,,
4.612521000000015,-28.48938871186062,-24.539492098297043,-28.181018111002555,-0.7249271273612976,0.9303265810012817,-0.8459307551383972,,,,,
4.621930999999904,-27.62353704134274,-20.464729592114217,-26.216484506511723,-0.6223209500312805,0.850560188293457,-0.6882092952728271,,,,,
4.641145000000051,-22.156669627685524,-13.450404014064082,-23.905597732636345,-0.4375765323638916,0.5560147762298584,0.4382891058921814,,,,,
4.669681000000082,-11.327354233984243,-7.8986765444059035,-23.258048356569436,-2.393597364425659,-0.09169653058052063,2.3040568828582764,,,,,
4.679172999999992,-8.455892386327454,-7.177862497132131,-22.38290684426998,-3.3392999172210693,-0.2902182936668396,3.016847610473633,,,,,
4.6886930000000575,-6.013058487167998,-6.775793117858184,-21.169437580955485,-3.7405385971069336,-0.5017150640487671,3.4754796028137207,,,,,
4.698200999999926,-3.9029515348582136,-6.303078087381653,-20.158318084322563,-3.407080888748169,-0.49859464168548584,3.157344341278076,,,,,
4.707707000000028,-2.3765486613656024,-6.059157013052179,-19.948376306154156,-2.2799558639526367,-0.2554236948490143,2.498828172683716,,,,,
4.717216999999891,-2.1583237753199405,-6.513616604075937,-20.858699440577244,-0.8624006509780884,-0.101621113717556,1.6631158590316772,,,,,
4.7267309999999725,-3.51575812237058,-8.098954772256334,-22.7579482594587,0.3264651298522949,-0.23007027804851532,0.6415392160415649,,,,,
4.736247999999932,-5.77394468765202,-10.989327509787508,-25.179654210011783,0.8690991401672363,-0.3200824558734894,-0.1645984649658203,,,,,
4.745744999999943,-8.333762084251862,-15.219078569287003,-27.519140438906984,0.9245034456253052,-0.18305286765098572,-0.508118748664856,,,,,
4.755087000000003,-11.222572744595547,-20.332304007540134,-29.24561851538256,0.8289636373519897,-0.116466224193573,-1.2548376321792603,,,,,
4.764589999999998,-14.3751872401021,-25.400031566885843,-29.944289492319403,0.8794065117835999,0,-2.2345781326293945,,,,,
4.774124000000029,-18.10642450272961,-29.594764433926763,-29.49671804405557,1.298259973526001,0.3468402028083801,-3.2663235664367676,,,,,
4.783619999999928,-22.820983221998556,-32.2027794358701,-28.389256205301056,2.1778221130371094,0.5873236060142517,-4.021694183349609,,,,,
4.802643999999873,-34.31079576770693,-32.62481913447757,-27.675582818049293,3.4169726371765137,1.6725945472717285,-3.524911880493164,,,,,
4.812159000000065,-40.14528280078528,-32.31244600283842,-28.59624765476218,3.1687934398651123,1.1639764308929443,-3.216078281402588,,,,,
4.821650999999974,-44.91617393541133,-32.317635053621025,-29.30738661379402,2.5938527584075928,1.303855299949646,-2.017955780029297,,,,,
4.831175999999914,-50.28303277294214,-32.018673378544186,-29.033173235999175,1.7271945476531982,1.1758352518081665,-1.2772923707962036,,,,,
4.840686999999889,-56.1398831082179,-30.70224739856877,-27.455166431892643,0.9291911125183105,0.8821094036102295,-1.0539612770080566,,,,,
4.8501810000000205,-60.96943586004054,-27.83330460338034,-25.325833211005598,0.2801993191242218,0.9698559641838074,-0.5938330888748169,,,,,
4.859778000000006,-64.27059768410004,-23.553019596838112,-23.63089141550991,-0.4922710359096527,1.3240668773651123,-0.42210653424263,,,,,
4.869292000000087,-66.20832339771727,-18.77104884243616,-22.470365865127647,-0.8760228753089905,1.31926691532135,-0.5659335851669312,,,,,
4.888238999999885,-64.04700296813964,-10.858454024232973,-21.242780745761745,-1.2297395467758179,1.397560954093933,0.2501649558544159,,,,,
4.89774599999987,-60.71605819324969,-8.520396646389942,-20.643772482498264,-1.4354251623153687,0.9084136486053467,0.7361373901367188,,,,,
4.916954999999916,-48.78282585903492,-6.166468682232928,-18.564202620719243,-2.6941802501678467,0.14157497882843018,2.3694233894348145,,,,,
4.926465999999891,-40.37888515025857,-5.6251098728189035,-17.24960509407736,-3.3823673725128174,-0.23314213752746582,2.325059413909912,,,,,
4.935975999999982,-29.648231063751727,-5.608385696046615,-16.104733390001837,-3.4872403144836426,0.4830154478549957,3.4053611755371094,,,,,
4.945478000000094,-18.299313358981212,-6.307137449506437,-15.950400230094386,-2.6326956748962402,0.8199257850646973,4.034282684326172,,,,,
4.964494000000059,2.3109207219704397,-9.525490299765924,-19.063656549723458,0.6312347054481506,0.05779042840003967,2.096830368041992,,,,,
4.973991000000069,11.114596834653172,-11.57986873605833,-21.263346311552752,1.6065964698791504,-0.16098852455615997,1.6403424739837646,,,,,
4.983355999999958,17.610896237988985,-14.281029130189244,-22.903911364894405,1.848521113395691,-1.1426191329956055,-0.16027957201004028,,,,,
4.992858000000069,23.65968617854091,-18.20857478119474,-23.45117248777611,1.6582094430923462,-1.2877848148345947,-0.480373352766037,,,,,
5.002367000000049,28.93332784970891,-22.985709411528468,-22.59591033941138,1.217514991760254,-1.0886987447738647,-0.3838886320590973,,,,,
5.011882999999898,32.87356812680131,-27.839709485609436,-20.218300882043795,0.7390642762184143,-1.3889751434326172,-2.2380707263946533,,,,,
5.030876000000035,45.611994496896074,-36.36918179818971,-13.0094896446737,1.208542823791504,-1.0355674028396606,-0.9271351099014282,,,,,
5.040573999999879,56.82769043641015,-39.12913635234746,-10.152613923158302,1.7974963188171387,-0.8455110192298889,0.5855801105499268,,,,,
5.059418999999934,92.27460623292886,-40.596763443338475,-13.216268354020388,3.919645309448242,0.11791133880615234,5.280631065368652,,,,,
5.068935999999894,111.68028455264566,-38.283779397219426,-16.9224903819256,3.3981943130493164,0.6144345998764038,6.4600324630737305,,,,,
5.087964000000056,144.61666751558215,-28.974386438481694,-21.634200165533894,0.9346380233764648,0.4313289523124695,4.542471408843994,,,,,
5.097551999999951,158.90100461376917,-24.303484891751694,-21.891026766274205,-0.6875007152557373,0.7674390077590942,4.729586601257324,,,,,
5.116557999999941,-178.1568171801332,-17.958377735941543,-20.37429892675659,-1.31467866897583,0.21233797073364258,1.8942272663116455,,,,,
5.126085999999987,-167.31900365878766,-16.14085072098828,-19.835064030673863,-0.6435748338699341,0.4063010811805725,1.8172245025634766,,,,,
5.135688000000073,-157.42689544842307,-14.416560974564327,-19.725687836728657,0.03428301215171814,-0.049300312995910645,0.33687150478363037,,,,,
5.145185999999967,-146.54580505821383,-11.510679744421312,-19.69781787574182,0.40534889698028564,0.28149765729904175,-0.12838733196258545,,,,,
5.154612000000043,-134.52331924872453,-7.282674825510509,-19.185286044897417,-0.23865675926208496,0.8513400554656982,0.9635156989097595,,,,,
5.164033000000018,-121.85126435464542,-2.5545092614486156,-17.83838121906723,-2.0707950592041016,1.056211233139038,1.4312756061553955,,,,,
5.1830640000000585,-89.66841276620104,2.53275757258725,-12.75812074827561,-6.233636379241943,3.004202127456665,2.3538272380828857,,,,,
5.202070000000049,-52.919427702680686,-7.11384140965183,-17.666486372568464,-1.1131540536880493,1.6651966571807861,6.146089553833008,,,,,
5.211769999999888,-32.495147221887215,-8.858778005597959,-25.333223373462786,1.352042317390442,1.9667577743530273,7.024253845214844,,,,,
5.230788999999959,1.8134639429967747,-5.4653761262998515,-31.590038670389305,4.940566539764404,-0.10327240079641342,2.3466358184814453,,,,,
5.240313999999898,18.964848018822547,-5.65294159805131,-27.353562873163543,4.119904518127441,0.7771843671798706,1.3125919103622437,,,,,
5.24982,35.090751205059725,-11.350341890692158,-21.26875797590125,3.5947349071502686,0.8427795767784119,1.8057894706726074,,,,,
5.259319999999889,49.96310600578251,-20.605115324963954,-15.920757416946879,2.0718259811401367,0.6280885338783264,1.817141056060791,,,,,
5.268831999999975,66.28005899403834,-30.71734754507424,-13.440352099046954,0.2584524154663086,1.1338400840759277,2.703281879425049,,,,,
5.278158000000076,86.27150091268686,-38.70453798747635,-16.07605555971421,-0.5796353220939636,1.2894089221954346,4.532464981079102,,,,,
5.2876790000000256,110.19329603552946,-41.29849430060326,-22.427759587094148,0,1.4213415384292603,6.598473072052002,,,,,
5.297186000000011,133.86243626445287,-38.01020356162552,-26.678212338690027,1.3828537464141846,2.223482847213745,8.118460655212402,,,,,
5.316195999999991,167.26521461023887,-27.215780478409748,-20.131691283442827,2.92691969871521,1.1282050609588623,6.308414459228516,,,,,
5.325788999999986,-178.75642481399277,-24.8084642693287,-14.85415003582024,1.8386582136154175,0.7892473340034485,5.0028276443481445,,,,,
5.335297999999966,-165.01580562465148,-23.90229281318678,-12.110530819814123,0.31441813707351685,0.3158392310142517,3.651700973510742,,,,,
5.344810999999936,-151.36118040485832,-22.74849466707659,-12.66306107590308,-1.0071179866790771,0.22038865089416504,2.48991060256958,,,,,
5.363832999999886,-125.32951391187763,-15.535183756533078,-18.19904782442153,-1.695281982421875,1.0277372598648071,1.0272948741912842,,,,,
5.382861999999932,-99.63707200035526,-6.09076654338538,-18.361551722284428,-0.9858410358428955,1.6740634441375732,1.3096975088119507,,,,,
5.392284999999902,-85.24046265823534,-3.658580908091417,-15.529534649767445,-1.0676974058151245,1.9083869457244873,2.630108594894409,,,,,
5.401794999999993,-69.59889174886153,-3.5636743973155918,-12.481303214068697,-1.7819384336471558,1.8749754428863525,3.948188066482544,,,,,
5.420990999999958,-33.78665553803536,-7.579406343429284,-10.734617139814368,-2.928041934967041,2.196303367614746,6.057305335998535,,,,,
5.430501999999933,-14.958492929494218,-9.0660561755731,-12.895432472272294,-2.1299991607666016,1.714771032333374,6.3321404457092285,,,,,
5.449532999999974,20.212878956998264,-7.525622939041993,-18.22903935967782,1.122801661491394,0.6060311198234558,4.444161415100098,,,,,
5.459027999999989,35.23268152139307,-6.759589866198372,-18.917395236451565,2.4531943798065186,-0.2742560803890228,3.174006462097168,,,,,
5.46855000000005,49.12031270183776,-7.8701411391561065,-18.136951732641418,2.5539963245391846,-0.7209468483924866,1.939225435256958,,,,,
5.478069000000005,62.652020099524854,-11.84608915887365,-17.273086459222977,1.7684495449066162,-0.5586241483688354,1.8946605920791626,,,,,
5.487394999999879,75.36609065567148,-17.913334280295224,-17.256633263037127,0.36966991424560547,-0.38109052181243896,2.7428359985351562,,,,,
5.49690099999998,87.07807966265253,-24.398381574731232,-18.013239932823097,-1.3702592849731445,-0.3518199324607849,2.393226385116577,,,,,
5.515922000000046,111.15408682595341,-32.91036064518567,-20.71632470534042,-1.95766282081604,-0.26054149866104126,2.5212574005126953,,,,,
5.5254419999998845,123.2830683286594,-34.09368005339162,-19.97464565664166,-0.9169192910194397,-0.04165452718734741,3.495967149734497,,,,,
5.544454000000087,142.30713388934907,-34.527485560363985,-12.162171603564504,1.704455852508545,-0.4614493250846863,3.0949151515960693,,,,,
5.553973999999926,149.7298776016801,-35.54795181193516,-7.267905422400677,1.8484572172164917,-0.6975829601287842,2.8200135231018066,,,,,
5.563480999999911,157.25637293132817,-36.470230046369274,-3.9021244489165556,1.6141139268875122,-0.5799350738525391,2.578429698944092,,,,,
5.572981999999911,164.62429883855037,-36.716126665606836,-2.410726912013003,1.2888281345367432,-0.2001744955778122,3.4477341175079346,,,,,
5.582490999999891,169.92788358868614,-36.1999509006229,-2.04899830308962,0.9427700638771057,-0.07716943323612213,2.9002950191497803,,,,,
5.591997999999876,172.2641111365914,-35.05155135872272,-1.932489387894709,0.6165039539337158,-0.2351585328578949,1.1286956071853638,,,,,
5.601707000000033,172.27007035119993,-33.7240530998299,-1.5125880966496574,0.5658605694770813,-0.3315111994743347,-0.45575904846191406,,,,,
5.630241999999953,167.01813654901542,-29.916919776571326,2.192929275288305,-0.42341113090515137,-0.38154351711273193,-1.5439292192459106,,,,,
5.639742999999953,165.9211988212271,-28.831683590479106,3.9327977518187356,-0.8609713315963745,-0.12712585926055908,-1.3862656354904175,,,,,
5.649081000000024,165.0372027992426,-28.03477033166485,5.961390346691447,-1.2466908693313599,0.19213104248046875,-0.242043137550354,,,,,
5.658582999999908,163.55572971571524,-27.58971784966953,8.382427194760483,-1.1456289291381836,-0.0967964231967926,-0.20470261573791504,,,,,
5.668097999999873,162.0991039730523,-27.92656097305889,11.227430744193134,-0.6735731959342957,0.06262212991714478,0.5429387092590332,,,,,
5.677599999999984,159.4889396858333,-29.06799495431543,14.397681807538392,0.0801837146282196,0.06850889325141907,1.108605146408081,,,,,
5.687116999999944,155.46421999116606,-30.505927157720844,17.35633610105318,0.9492233395576477,0,1.8148115873336792,,,,,
5.70613400000002,145.56677362767354,-32.89748706408001,20.763051981089458,1.9328619241714478,0.687646746635437,4.014374732971191,,,,,
5.715637000000015,138.67896987898092,-33.90877759027884,21.603267391258782,1.8788270950317383,1.306752324104309,5.533963203430176,,,,,
5.734666000000061,118.66958524631397,-34.305897960462126,24.231352516489515,0.9488100409507751,0.7622743844985962,4.171137809753418,,,,,
5.744171000000051,108.35615674022854,-32.62797879434455,25.57413933616836,0.44988590478897095,0.990852952003479,4.128131866455078,,,,,
5.763193999999885,88.16282318978017,-25.787864614741757,26.26689573355319,-0.3088851273059845,0.04843342304229736,1.7046446800231934,,,,,
5.7728870000000825,80.45160779337056,-22.108215011258725,25.483573906197485,-0.5641648769378662,0.03135937452316284,1.4217064380645752,,,,,
5.791913000000022,66.32861156797158,-17.24828651303218,24.423220987349634,-0.2673165798187256,-0.16641229391098022,0.7240726947784424,,,,,
5.801439999999957,59.5117758456603,-16.079431555756667,24.911192292895688,-0.1818717122077942,-0.16547977924346924,0.29976484179496765,,,,,
5.820443000000068,45.95525738832378,-14.037552278404796,27.511742593602445,-0.2879657447338104,0.7505486607551575,0.5720230937004089,,,,,
5.839477999999872,29.873459450384793,-9.430765621101672,28.479977810610556,-0.8538246750831604,1.412847638130188,1.3569962978363037,,,,,
5.848981000000094,20.002418849490574,-6.705184527903666,27.406128959549438,-0.9001295566558838,1.7105059623718262,2.237184524536133,,,,,
5.8584840000000895,8.573742519793637,-4.418249347191515,26.22984358528092,-0.7798416614532471,1.5850629806518555,2.727336883544922,,,,,
5.867995999999948,-3.803997134347324,-3.045724997518372,25.753522163832884,-0.3750275671482086,1.8463026285171509,3.6052165031433105,,,,,
5.877512999999908,-17.23651730206893,-2.2802040851974206,26.84904464481004,0.34105348587036133,1.9243621826171875,3.733980894088745,,,,,
5.887011999999913,-30.47413791366932,-1.225914125121016,29.605578918079434,0.983373761177063,1.6572436094284058,3.095571756362915,,,,,
5.89635700000008,-41.948549337974086,0.6218407901224889,33.35491766146201,1.1718169450759888,1.9080045223236084,2.609840154647827,,,,,
5.905847999999878,-52.00756201692221,2.884749356416591,36.99818152473691,0.6694106459617615,2.2740745544433594,2.247542381286621,,,,,
5.915369000000055,-60.98535743341249,4.436125872470081,39.84868172709686,-0.3944628834724426,2.208482027053833,1.223559856414795,,,,,
5.924878999999919,-68.41894258902289,4.16738228454784,41.661093973741195,-1.3578212261199951,2.2293074131011963,0.5525286197662354,,,,,
5.934394999999995,-74.44091548044655,1.8104864038101656,42.74244253336825,-1.7803153991699219,2.220245122909546,0.0725751519203186,,,,,
5.943907000000081,-79.36441857906435,-1.9682427849619881,43.24337496138506,-1.6035473346710205,1.7393275499343872,-0.6826099157333374,,,,,
5.953412999999955,-83.05697665099888,-5.864414673868532,43.38237691441678,-0.9797115325927734,1.4116640090942383,-1.3252521753311157,,,,,
5.962917000000061,-86.55889704295616,-8.539061072968147,43.152884877275994,-0.203059583902359,1.2907087802886963,-1.849947452545166,,,,,
5.972430999999915,-90.60599892999365,-9.100024732353452,42.49475997794071,0.3906668424606323,1.1656821966171265,-2.97062087059021,,,,,
5.981941000000006,-95.05281491178175,-7.384930944649753,41.638674803292886,0.6999473571777344,1.626771330833435,-3.308774709701538,,,,,
5.991455000000087,-100.72573607022372,-4.015610460260143,40.66014056114112,0.9678704738616943,2.0686373710632324,-3.1563282012939453,,,,,
6.000964999999951,-107.73241696132004,-0.11416302178111186,39.292636422240655,0.9974292516708374,2.4513025283813477,-2.0424392223358154,,,,,
6.0105570000000625,-116.20190516349817,3.0911539469043126,37.74595967857438,0.7735401391983032,2.832125425338745,-0.30193158984184265,,,,,
6.020056999999952,-126.27337818080606,4.817071029586376,36.84837539894151,0.3971194624900818,2.9524621963500977,0.7927817106246948,,,,,
6.029571999999916,-137.3681123254622,5.061552843025442,37.41573058869168,0,2.7900562286376953,1.632979154586792,,,,,
6.039082999999891,-148.78494567680914,4.505584692606923,39.71507166393766,-0.36494898796081543,2.4754772186279297,2.024563789367676,,,,,
6.048585000000003,-160.1397870721362,4.2120077794132955,43.34143873247055,-0.6794556975364685,1.9547101259231567,2.0168297290802,,,,,
6.0581059999999525,-171.10757056331354,4.897178679193181,47.2136831757991,-0.7151018381118774,1.3335856199264526,1.9682000875473022,,,,,
6.0676220000000285,178.51688758561997,6.221083687951861,50.06594452691537,-0.5730071067810059,0.8875910043716431,1.9629337787628174,,,,,
6.077070999999933,168.4909499815738,7.327968464231632,51.253526960153344,-0.40545040369033813,0.6311944127082825,1.5131080150604248,,,,,
6.086757000000034,158.83406348557125,7.578354017603655,50.979209908772674,-0.23128846287727356,0.4666943848133087,0.7219991087913513,,,,,
6.0962520000000495,149.97955664291916,6.767985531600394,50.10911787079103,-0.1165047436952591,0.45453158020973206,-0.07590776681900024,,,,,
6.105765000000019,142.19059597569398,5.3578955294481725,49.68306474728523,-0.10879618674516678,0.5425944924354553,-0.8900022506713867,,,,,
6.115260999999919,135.08993269956807,4.286856791486453,50.40638405178686,-0.07815546542406082,0.6143798828125,-1.4523756504058838,,,,,
6.124769000000015,128.19441088039892,4.402038971828168,52.461163906039125,0,0.660447359085083,-1.6778783798217773,,,,,
6.134293000000071,121.0427236212197,6.14973153995148,55.35573529263731,0.05234538018703461,0.7810068130493164,-1.6544264554977417,,,,,
6.1437969999999495,112.73170701485483,9.382269840905622,57.94962821368353,0,0.9885113835334778,-0.8419729471206665,,,,,
6.153297000000066,102.22590437277458,13.101934059763902,59.11326798005369,-0.11417746543884277,0.8242390751838684,-0.10697561502456665,,,,,
6.162837000000081,89.63827145763024,15.644966319284848,58.47914153814667,-0.21192654967308044,0.7068369388580322,1.1786693334579468,,,,,
6.1723259999998845,75.17014212910253,15.59489765029027,57.07132572351344,-0.15884503722190857,1.084876537322998,2.691554069519043,,,,,
6.1818419999999605,59.161281226981565,12.924653198327507,56.93716626870325,0.12094848603010178,1.5246222019195557,3.6228551864624023,,,,,
6.191348000000062,42.82574182260421,9.315229932286918,59.61927780336381,0.3284528851509094,1.883587121963501,3.8271350860595703,,,,,
6.200851000000057,26.988122223026835,6.930929429417214,64.5635739838784,0.025158002972602844,2.4853672981262207,3.6286768913269043,,,,,
6.210360999999921,11.584037649703227,7.031799879330983,69.6977841086063,-0.3776445984840393,2.6196675300598145,2.5418860912323,,,,,
6.219700999999986,-2.443949838753587,9.206540612359632,72.90454116120965,-0.9695494174957275,2.226670503616333,0.3175024390220642,,,,,
6.2292150000000674,-14.557919323729177,11.470350341222831,73.23575948685829,-1.3676434755325317,1.9538638591766357,-1.398386001586914,,,,,
6.2388089999999465,-24.954978317938597,12.2460668172168,71.95715068732561,-1.3036271333694458,1.5665827989578247,-3.1373987197875977,,,,,
6.248317000000043,-33.293509152433515,11.463743980597801,69.87961249211266,-1.174264669418335,0.9376436471939087,-4.424412250518799,,,,,
6.257832999999891,-38.75599781563712,10.091552880897188,67.92596032707603,-1.1007047891616821,0.3633217513561249,-4.825014114379883,,,,,
6.267333999999892,-41.385981580156944,9.503375362964901,67.67888482342305,-0.979071855545044,0.19923052191734314,-4.393369674682617,,,,,
6.276847000000089,-42.066270730785206,10.792642334436845,68.69680121726404,-0.9195659756660461,0.2606973648071289,-3.6889214515686035,,,,,
6.286342999999988,-40.7993035108231,13.957757303616196,70.87211261008376,-0.9348510503768921,0.5667896866798401,-3.143385410308838,,,,,
6.295869000000039,-37.35139247219834,17.86443512599638,74.06139430406878,-0.7979711294174194,1.070551872253418,-2.2245001792907715,,,,,
6.3052940000000035,-32.45178566597946,21.137828359991385,77.63251345106323,-0.4832289516925812,1.126518964767456,-1.6018214225769043,,,,,
6.314800999999989,-26.642987188921158,22.70058738703898,80.71733631011057,-0.07750210165977478,0.9335305690765381,-0.9220398664474487,,,,,
6.324519999999893,-20.770787197757908,22.166199128607502,82.50229273259308,0.36380332708358765,0.7359627485275269,0.09575456380844116,,,,,
6.334018000000015,-15.717868663037141,20.14433250681682,82.48111601997697,0.5738826394081116,0.3209473490715027,0.9018487334251404,,,,,
6.343421000000035,-11.167473784173819,17.683184890532456,81.20900426510964,0.47537708282470703,0.10443951189517975,1.9729397296905518,,,,,
6.353031999999985,-7.501126411210148,15.698110389346283,79.53960958604458,0.1744876503944397,-0.14332354068756104,2.9901440143585205,,,,,
6.362546000000066,-5.081410709978957,14.658661453823244,78.53051434624625,0.11279559135437012,-0.5149487853050232,3.05242919921875,,,,,
6.37204399999996,-3.6716850087419286,14.659924242214805,78.79264666771543,0.306552916765213,-0.2261437177658081,3.612058162689209,,,,,
6.381566000000021,-3.9427765277713207,15.280141426123349,80.37705606445309,0.613481879234314,0.171075701713562,3.630531072616577,,,,,
6.391075000000001,-5.840630169487148,15.933735497420187,82.6773221843121,0.9070327281951904,0.3480550944805145,2.7135133743286133,,,,,
6.400574000000006,-8.396562115337089,16.376815470655554,84.76450048882464,0.7583087682723999,0.7939214110374451,2.3086140155792236,,,,,
6.410088999999971,-11.97971433304739,16.348907933567084,85.71711671698459,0.15076887607574463,1.4498778581619263,2.0536417961120605,,,,,
6.419611000000032,-17.021866303957836,15.41966347842952,85.1267182103581,-0.48094725608825684,1.4119608402252197,0.8569139838218689,,,,,
6.42893499999991,-22.136577769161228,13.504830880486189,83.330213177763,-0.859822690486908,1.4149830341339111,0.323441743850708,,,,,
6.4384399999999005,-27.068746753580392,11.063401293163054,81.12819657098176,-1.0720568895339966,1.0765509605407715,-0.929034411907196,,,,,
6.4479489999998805,-31.221933658518367,8.668828883283949,79.62709319776533,-1.1430424451828003,0.5316972732543945,-2.0592217445373535,,,,,
6.457542999999987,-34.20889490601096,7.137836991655974,79.43877093564164,-1.3476579189300537,0.3765786290168762,-3.0625803470611572,,,,,
6.467069000000038,-36.623086458434265,6.92560704950895,80.57147696697614,-1.7978582382202148,0.17498677968978882,-4.693238735198975,,,,,
6.4765789999999015,-37.87829921145417,8.001012335566925,82.70904829625972,-2.5358715057373047,0.056847572326660156,-5.048271179199219,,,,,
6.485987999999907,-37.142451912238904,9.923415957441751,85.01900724765049,-3.3093578815460205,0.3112609088420868,-4.805413246154785,,,,,
6.495513999999957,-35.34721385916465,12.015922477829706,86.45207093142524,-3.270050287246704,0.769111156463623,-3.6143598556518555,,,,,
6.505020000000059,-33.6460713454551,14.058394688358653,86.60726400600699,-2.6096689701080322,0.12728655338287354,-3.513594627380371,,,,,
6.514527000000044,-30.027987983405175,15.835574198197595,85.90408277944856,-1.6946808099746704,0.044375211000442505,-2.4737164974212646,,,,,
6.524218000000019,-25.454127239525864,17.052619298350315,84.78077732850392,-0.35815006494522095,0.44373103976249695,-0.5415910482406616,,,,,
6.5335459999998875,-22.20824991576152,17.900572464211024,83.65084780546671,0.9940778017044067,-0.5405819416046143,-1.1486510038375854,,,,,
6.543048999999883,-17.966872880491735,18.36283314992138,83.242005694051,1.725213646888733,-0.6051152348518372,-0.8496354222297668,,,,,
6.55257000000006,-13.202929089279047,17.857791734435732,83.87258634923883,1.7190223932266235,-0.25989073514938354,0.2959427833557129,,,,,
6.571774999999889,-6.502200829750939,14.022635099620148,87.08502940824059,0.05981706082820892,-0.4246204197406769,1.5034494400024414,,,,,
6.581282999999985,-4.630504934495014,12.132789624386989,88.41243355789472,-1.0208134651184082,0.10707129538059235,2.551140785217285,,,,,
6.59078999999997,-4.551678712619705,11.17552066783923,88.78447613110134,-1.3207224607467651,0.18310153484344482,2.5361931324005127,,,,,
6.600300999999945,-5.404659818976863,11.487515765484332,88.09675090448528,-0.8215214014053345,0.6221259236335754,3.5069668292999268,,,,,
6.609815000000026,-7.669308488543554,12.644567985266956,86.51560608041477,0.1144682839512825,0.6869215369224548,3.14591908454895,,,,,
6.619326000000001,-10.618573023112555,13.612429946371753,84.47525048362506,1.1281651258468628,0.9817984104156494,3.0422849655151367,,,,,
6.62883399999987,-14.328054249147353,13.936923548632235,82.41818613292703,1.5543277263641357,1.300372838973999,2.7670960426330566,,,,,
6.638337999999976,-18.85361206794908,13.4598411290238,80.59116590161518,1.063109040260315,0.9885215759277344,1.3334033489227295,,,,,
6.647866000000022,-22.71324939381892,12.127231700764586,79.11499194542309,0.10173552483320236,1.001052975654602,1.0576679706573486,,,,,
6.657365999999911,-25.94676377286542,10.519059302699729,77.72433328317886,-0.9889235496520996,1.2721573114395142,0.9983722567558289,,,,,
6.6666969999998855,-29.14826299022929,9.121339520729954,76.13136984320863,-1.8862630128860474,1.081852674484253,0.13348859548568726,,,,,
6.676203999999871,-31.822633051230227,8.030658435127835,74.41095448960793,-2.1505703926086426,0.9437483549118042,-0.16441398859024048,,,,,
6.685715999999957,-34.26333840221561,7.625069484719495,72.46374158296138,-1.9450671672821045,0.81447833776474,-0.552579939365387,,,,,
6.695226000000048,-36.64813913986421,7.968262931984861,70.4049995369642,-1.5558021068572998,0.5033246874809265,-1.304850459098816,,,,,
6.704737999999907,-38.54408092665947,8.672559632998327,68.50560408305998,-1.068557858467102,0.4157028794288635,-1.8199849128723145,,,,,
6.714332999999897,-40.13136546458752,9.419936475358824,66.77485886377069,-0.6128017902374268,0.2711082100868225,-2.6520962715148926,,,,,
6.723848000000089,-41.15005408926569,9.958923714521799,64.80008430840627,-0.40173059701919556,0.31314367055892944,-3.0945181846618652,,,,,
6.733349999999973,-42.01822016819094,9.964234253398974,62.36922346129571,-0.271831214427948,0.06346142292022705,-3.881976842880249,,,,,
6.742862000000059,-41.60221764401036,9.358634152918661,59.38653418406731,-0.1778305023908615,-0.2195810079574585,-4.258229732513428,,,,,
6.752369999999928,-39.14431219466516,8.315743815685162,55.80261437251873,-0.13044391572475433,0.06445324420928955,-3.0961689949035645,,,,,
6.761878999999908,-35.70258137683225,7.093124725479981,51.727109177789735,0.06115499138832092,-0.1579863429069519,-2.999255657196045,,,,,
6.771303999999873,-30.821558799402705,6.15289185261153,47.41634758499857,0.2471124529838562,-0.31018948554992676,-2.27237868309021,,,,,
6.780823999999939,-24.55326725975816,5.911341819019469,43.190489463669316,0.36125531792640686,-0.235785573720932,-1.308600902557373,,,,,
6.7903479999999945,-17.615242887362157,6.306345555529239,39.391237385005354,0.5145178437232971,-0.4196688234806061,-0.7322646379470825,,,,,
6.80001900000002,-9.876634561436305,7.061254609098046,36.26946663812591,0.7284303307533264,-0.48887765407562256,0.32457005977630615,,,,,
6.809537999999975,-1.3834763672016543,7.978125404670456,33.64212352668366,1.0563884973526,-0.38915562629699707,0.44934576749801636,,,,,
6.81886899999995,7.359817838456868,8.63541624411833,31.305559419344014,1.226596474647522,-0.2522011399269104,-0.08694720268249512,,,,,
6.828375999999935,15.699623940201171,8.386155296882535,29.025773387009515,1.3616132736206055,-0.4797743856906891,-0.10634821653366089,,,,,
6.838068000000021,23.79559994649064,7.310996778429788,26.334575318991728,1.3639875650405884,-0.6299555897712708,0.7882007360458374,,,,,
6.847571000000016,31.577729758008743,6.033011438430667,23.207464942897346,0.9340856075286865,-0.6164011359214783,0.7342216372489929,,,,,
6.857078999999885,38.57976165368531,4.763327627710773,19.565251239668893,0.3200558125972748,-0.7637476921081543,0.8134952783584595,,,,,
6.866588999999976,44.66680939541853,3.684653585826027,15.48904381466044,-0.025943942368030548,-0.9563268423080444,0.8780331015586853,,,,,
6.876109999999926,49.84304525126256,3.1726627587832477,11.451219345836426,-0.3367016911506653,-0.9373793601989746,0.5496689677238464,,,,,
6.885444999999891,53.480568026531216,3.1523702796688386,7.60166736718522,-0.6208277344703674,-0.9454606175422668,0.558201253414154,,,,,
6.894952999999987,54.91976573523234,3.3107942221054683,3.872377703469017,-0.836444079875946,-0.9607266187667847,0.12969887256622314,,,,,
6.904643000000078,53.97080776953747,3.487951626702972,0.31826927196181254,-1.3389220237731934,-0.6254734992980957,0.61019366979599,,,,,
6.914152999999942,50.22456127581498,3.47319872541674,-2.920126033597516,-1.873051404953003,0.11364167928695679,2.1926944255828857,,,,,
6.923657000000048,43.859143059115645,3.0838015790356987,-5.513292474507546,-1.8420240879058838,0.19401776790618896,1.940863847732544,,,,,
6.933170999999902,36.43042628192583,2.23273419763355,-7.330796792555138,-1.6436222791671753,0.7929736971855164,2.260575532913208,,,,,
6.942683999999872,27.574699271520927,1.151035685084733,-8.49196803841074,-1.1086337566375732,0.7816234827041626,1.7899560928344727,,,,,
6.952181999999993,18.685553453278146,0.09904492383727419,-9.342613228128782,-0.6785414218902588,0.8016908168792725,1.1841638088226318,,,,,
6.961704000000054,10.37101254623012,-1.0107462451799407,-10.535581392191755,-0.3209514319896698,1.194018840789795,1.125174641609192,,,,,
6.971205999999938,2.248964368978992,-2.3517569081629115,-12.578305862352362,0,1.204416036605835,0.4499993920326233,,,,,
6.980741999999964,-4.949594409407825,-4.24682005495261,-15.566393072696286,0,0.9015848636627197,-0.3513132333755493,,,,,
6.990066999999954,-10.205578732681667,-6.872982582604113,-19.1067682803453,0.37991103529930115,0.8663731813430786,-0.8162595629692078,,,,,
6.999565000000075,-14.056627622781711,-9.614051608184091,-22.657491161625284,1.0003447532653809,0.8609462976455688,-1.074188232421875,,,,,
7.009064999999964,-17.178256776413566,-12.024808826937193,-25.57106278962385,1.821514368057251,0.6034342050552368,-1.6621354818344116,,,,,
7.018587999999909,-19.527973198601963,-13.84066281163277,-27.25414388695091,2.959597110748291,0.5859678983688354,-1.8553043603897095,,,,,
7.028096000000005,-21.586695393995527,-14.688058763155503,-27.666276019413274,3.963947296142578,0.9833166599273682,-1.7971765995025635,,,,,
7.037614000000076,-24.046233905954455,-15.067408067973297,-27.10151812070859,4.429925441741943,0.9772487282752991,-2.222590923309326,,,,,
7.056626000000051,-26.0419875155905,-16.89768318802878,-25.442371894688556,3.268975257873535,0.7049717307090759,-2.9038565158843994,,,,,
7.0661419999999,-24.44092046353682,-17.622745482161875,-25.450841965403175,1.975389003753662,1.1467176675796509,-1.2785183191299438,,,,,
7.075644000000011,-23.353231686446136,-18.23319600733416,-25.686935065255565,1.037308931350708,0.8463088274002075,-1.6288361549377441,,,,,
7.0852259999999205,-21.543378386603884,-18.31735651052066,-26.12585328956815,0.20192059874534607,0.5704864859580994,-1.4700617790222168,,,,,
7.094679999999926,-18.640382301446344,-17.38327390944812,-26.79626688720812,-0.5099083185195923,0.7557546496391296,-0.7178838849067688,,,,,
7.104168000000072,-15.83899762302644,-15.719143816391522,-27.459592191024967,-0.8468174338340759,0.22102679312229156,-0.8607421517372131,,,,,
7.113888000000088,-12.326160020748762,-13.57087848539711,-27.789521788275017,-0.6521474123001099,0.05523337423801422,-0.054812610149383545,,,,,
7.123379999999997,-8.602042007789633,-10.656240548767796,-27.758979778693867,-0.3273724317550659,-0.05317522585391998,0.8054153919219971,,,,,
7.142397000000074,-0.88774270429439,-5.5265963876316615,-26.493304623740528,0,-0.3264056444168091,0.9967944025993347,,,,,
7.151914999999917,2.7946244554730013,-4.315042248481027,-25.588646640128314,-0.4535236954689026,-0.5676593780517578,1.1873412132263184,,,,,
7.161432999999988,6.216674512556677,-4.0414592060871195,-24.88847489879652,-1.5857961177825928,-0.8254977464675903,1.3846871852874756,,,,,
7.170926000000009,9.527599667195979,-4.778756393473245,-24.76738196728075,-2.5478005409240723,-0.6992424130439758,2.342979907989502,,,,,
7.1804369999999835,11.943814837422613,-5.6679657109524335,-25.306445290683683,-3.2706286907196045,-0.6321861147880554,2.3858821392059326,,,,,
7.189949999999953,13.101515569311754,-5.990392619724502,-26.32385941163821,-3.374077081680298,-0.7429605722427368,2.124605178833008,,,,,
7.199458999999933,12.986921116838099,-5.696510903725333,-27.51483850018679,-2.656000852584839,-0.8841224312782288,1.6009972095489502,,,,,
7.208979999999883,11.717105881006498,-5.10202093091741,-28.564505464074013,-1.4659197330474854,-0.8271329998970032,1.1253674030303955,,,,,
7.218480999999883,9.435224392081832,-4.704512953655384,-29.319364474836426,-0.3126876652240753,-0.5969017148017883,0.6170409917831421,,,,,
7.228000999999949,6.450506174863871,-5.0376922997397315,-29.857123975175227,0.583335816860199,-0.27941733598709106,0.177975594997406,,,,,
7.237509999999929,3.0595200088234806,-6.040449458433997,-30.391297357813084,1.0709770917892456,0.12132474780082703,0,,,,,
7.246840999999904,-0.7871348030295037,-7.537884052447963,-31.30888122889014,1.015229344367981,0.2854498624801636,-0.7601773142814636,,,,,
7.256351999999879,-4.23539596573003,-9.776278590892627,-32.95965880797653,0.9397227764129639,0.5454888343811035,-1.248220682144165,,,,,
7.265857000000096,-7.260397007143558,-12.512595323208124,-35.44208695123632,1.377158284187317,1.0465611219406128,-1.1167024374008179,,,,,
7.27537099999995,-10.618913256154174,-15.090484809017882,-38.593257770153016,2.064199924468994,1.2009551525115967,-1.8336111307144165,,,,,
7.28488399999992,-14.59638296447128,-17.527713668494485,-41.962156359623876,3.168911933898926,1.4649429321289062,-2.041606903076172,,,,,
7.294390000000021,-19.876492333017683,-20.064103135483354,-44.976738491112606,4.081977367401123,1.2002615928649902,-1.909358263015747,,,,,
7.303891999999905,-25.655221245972292,-22.70951792320849,-47.12723137942139,3.9972176551818848,1.5953434705734253,-1.1949679851531982,,,,,
7.313409000000092,-31.950785474606132,-25.271799527665223,-48.451006766374974,3.3328990936279297,1.066717505455017,-1.8067240715026855,,,,,
7.322922000000062,-37.53183612541622,-27.292877624831483,-48.68146501340866,2.256917953491211,1.2278846502304077,-0.6091978549957275,,,,,
7.332435000000032,-43.92660012565201,-28.42382062942152,-47.85474228533202,1.3744678497314453,1.6677134037017822,-0.050728440284729004,,,,,
7.341936000000032,-51.23598509626473,-28.494760108610844,-46.52746400535334,0.43690618872642517,1.080871343612671,-1.2167553901672363,,,,,
7.351529000000028,-57.09831194972898,-27.73514293038988,-44.90149983409093,-0.2792394757270813,1.2868047952651978,-0.8524514436721802,,,,,
7.361053999999967,-62.21931378258966,-26.509660659306714,-43.27662693629276,-0.429030179977417,1.6644974946975708,-0.12989115715026855,,,,,
7.370480000000043,-66.7858187813493,-24.945160358658683,-42.15254727405092,-0.19261281192302704,1.0887269973754883,-1.2584465742111206,,,,,
7.379993999999897,-68.91268819986207,-23.209366669098287,-41.28221683404089,0.21132418513298035,1.1207518577575684,-1.226098895072937,,,,,
7.389490000000023,-69.22914493848546,-21.595610293630337,-40.03058007893605,0.6290118098258972,1.222656488418579,-1.1973540782928467,,,,,
7.398999999999887,-68.0283103221899,-20.18503606937111,-38.010328707701845,0.6920534372329712,0.8433376550674438,-1.6499539613723755,,,,,
7.4085110000000896,-64.50805576092174,-18.96789806271114,-35.00621647114717,0.12746629118919373,0.8297944068908691,-0.5897926092147827,,,,,
7.418026999999938,-59.34010968628146,-18.093128885776693,-31.128709244879747,-1.1234257221221924,0.4867106080055237,0.614637553691864,,,,,
7.4275330000000395,-52.28774085416663,-17.716228409471277,-26.838523229938456,-2.6836392879486084,0.31555694341659546,1.8292789459228516,,,,,
7.437053999999989,-43.274876035743354,-17.901815739808413,-22.991725408890165,-4.0675225257873535,0.2950827479362488,2.283843994140625,,,,,
7.44654700000001,-31.773415747603373,-18.43192503943994,-20.829739631138686,-4.465015411376953,0.8352380990982056,3.1662003993988037,,,,,
7.456236999999874,-18.81409477200494,-18.344111694124308,-21.014984159767415,-3.566370964050293,0.898842453956604,4.054467678070068,,,,,
7.465756000000056,-6.027514530621938,-17.101412931346484,-22.602316566528128,-1.8742889165878296,0.35398417711257935,4.0367255210876465,,,,,
7.475271000000021,5.58314405275629,-15.463854684220731,-24.290806835830473,0.3201388418674469,-0.25490719079971313,3.0983409881591797,,,,,
7.48477099999991,15.725382928465908,-14.067506598071876,-25.081671187845124,2.051974296569824,-0.6067209243774414,1.8582897186279297,,,,,
7.494282999999996,24.37329924220832,-13.7872710316736,-24.61994806089073,2.5864508152008057,-0.6324902176856995,0.6625760197639465,,,,,
7.503619999999955,31.449328833216192,-16.028264828625808,-23.722408294625414,2.557643175125122,-0.89084392786026,-0.5367661714553833,,,,,
7.513122000000067,37.79534262775548,-20.498955213923594,-23.069928063202525,2.3800265789031982,-0.9800112247467041,-0.6486260890960693,,,,,
7.522635000000037,43.658182902583626,-25.623832373411737,-22.543951047139146,1.7835570573806763,-1.1015815734863281,-0.8351146578788757,,,,,
7.53214899999989,49.885199775206594,-30.548146790122306,-22.168603434026945,1.495879888534546,-1.3633273839950562,-1.8301503658294678,,,,,
7.541655999999875,57.990423008604175,-34.820363847620186,-21.668747577992878,1.5889832973480225,-1.3011291027069092,-1.3888953924179077,,,,,
7.551351000000068,68.03506463007018,-38.239733669092296,-20.638443705629616,1.5407384634017944,-1.063798189163208,0.8668603897094727,,,,,
7.5608689999999115,79.61274724565953,-40.92944034372573,-19.54745079550794,1.4911025762557983,-0.9654842019081116,2.0150909423828125,,,,,
7.570187999999916,93.43250278406843,-42.82927296416847,-19.48169175545995,1.5461763143539429,-0.6771358847618103,2.9246573448181152,,,,,
7.579696999999896,109.43879357698229,-43.45779462115931,-20.960631898782662,1.5515835285186768,0,4.322239875793457,,,,,
7.589214000000084,125.1291868818205,-42.51723796347526,-23.043731939281198,1.1212327480316162,0.05486464500427246,4.538313388824463,,,,,
7.598707999999988,139.19136998093464,-40.30123980745846,-24.429156463776163,0.3526345491409302,-0.10536912083625793,4.013514995574951,,,,,
7.608310999999958,151.78342396569892,-37.357293598358474,-24.64734076872639,-0.2878143787384033,0.1187412440776825,3.4659457206726074,,,,,
7.617827999999918,162.46372487096187,-34.44800559865685,-23.510233836614958,-0.6895034313201904,0.24924708902835846,3.1606149673461914,,,,,
7.627324000000044,170.98715548942147,-32.04024835495788,-21.481238682270646,-0.6333373188972473,-0.09303678572177887,2.192538022994995,,,,,
7.636752999999999,178.27723796465835,-30.158396507287556,-19.23131405444656,-0.19160357117652893,-0.2994750142097473,1.2062592506408691,,,,,
7.64644700000008,-174.9703684537084,-28.54391982808585,-17.308570427769755,0.21679553389549255,-0.12928709387779236,0.6073667407035828,,,,,
7.655970000000025,-169.06362043973957,-26.641558517125002,-15.906657366559255,0.38777288794517517,-0.1742287576198578,-0.2923446297645569,,,,,
7.665479999999889,-163.6172895763266,-23.97674455269654,-14.889580725722261,0.14608904719352722,-0.28163763880729675,-1.0225428342819214,,,,,
7.674984999999879,-157.93187661593092,-20.50220551539478,-13.869704929901296,-0.6039025783538818,-0.043320417404174805,-0.6923211812973022,,,,,
7.684303,-152.18299819366126,-16.655094134349334,-12.372827256061319,-1.6862664222717285,0.1752435266971588,-0.45180535316467285,,,,,
7.693825000000061,-146.02816263128574,-13.227839592283589,-10.226413627704076,-2.591484785079956,0.23329007625579834,-0.8047475218772888,,,,,
7.7033369999999195,-138.1652891453738,-11.131356074349661,-7.696101024207697,-3.3852803707122803,0.46207472681999207,-1.2829487323760986,,,,,
7.7128459999998995,-128.2658375110071,-11.265394721577744,-5.38561991360627,-3.260209798812866,1.2210907936096191,1.2692729234695435,,,,,
7.7223569999998745,-118.05377119432104,-13.379228173545826,-4.2783663202113225,-2.32004714012146,0.26073044538497925,1.0488477945327759,,,,,
7.731866999999966,-105.07460632675196,-16.079346076057412,-5.112563575145804,-1.4182183742523193,0.5536419153213501,1.610477328300476,,,,,
7.741365999999971,-90.14754042764238,-18.106704814923685,-7.347667533719565,-0.31015512347221375,1.3493002653121948,3.2297203540802,,,,,
7.750882999999931,-76.21250138969044,-18.951886122412667,-9.414285253746975,1.056151032447815,0.7522672414779663,2.498953342437744,,,,,
7.760583999999881,-62.259544654227795,-18.776750481839198,-10.308563218449747,2.065546751022339,0.8736897110939026,1.6461832523345947,,,,,
7.770085999999992,-48.58322899834077,-18.392882441722787,-9.633390468167374,2.8275721073150635,1.079045057296753,1.2058892250061035,,,,,
7.779422000000068,-36.36917094809783,-18.94511287054989,-7.07726274373172,3.642906904220581,0.8363061547279358,0.1275414228439331,,,,,
7.7889339999999265,-25.879232698946563,-20.860319358080634,-3.2068892463505203,4.002819538116455,0.5778137445449829,-0.6408031582832336,,,,,
7.798444000000018,-16.8429774001883,-23.96645677121176,1.020155423510316,3.6532654762268066,0.18034915626049042,-1.586780309677124,,,,,
7.807945000000018,-8.087255206048733,-27.94089397883344,4.848623839499729,2.7922255992889404,-0.23281872272491455,-1.4621477127075195,,,,,
7.817657999999938,2.6787236636912843,-32.18565856205559,7.691045838306061,1.8979628086090088,-0.2689477801322937,-0.8030609488487244,,,,,
7.827140999999983,15.937539017459192,-35.899006697488815,9.663801683821355,0.4724416732788086,0.3771575689315796,1.5715839862823486,,,,,
7.836657000000059,29.47741861295984,-38.1398146007275,11.37863313885962,-1.30463707447052,0.03659433126449585,2.5065860748291016,,,,,
7.845996000000014,43.51607149474118,-38.90900846330953,13.39376722085742,-2.7520675659179688,-0.2765910029411316,2.441007137298584,,,,,
7.8555129999999735,59.09509900940397,-38.6640392382114,15.609221426629114,-2.7360432147979736,0.4951256513595581,4.4778594970703125,,,,,
7.86501700000008,73.38289048926467,-37.20324476085913,18.573600128208497,-1.8118925094604492,0.07924050092697144,4.9427666664123535,,,,,
7.874524999999949,86.37813287546803,-35.116423908906015,22.162973148909234,-0.14716753363609314,-0.3601814806461334,4.111363887786865,,,,,
7.884039999999914,98.58384526583121,-33.25497742380876,25.95200929635083,1.4855000972747803,-0.1118822693824768,4.388026714324951,,,,,
7.893546000000015,108.32458752441865,-32.273300515884166,29.639517901286368,2.1809275150299072,-0.7272869348526001,2.9692509174346924,,,,,
7.903053,117.27815611377544,-32.32481995219474,31.86839729507353,1.7983065843582153,-1.182884931564331,1.05630362033844,,,,,
7.912548999999899,127.10097280390073,-32.8664711665033,31.875987152647102,0.7303972244262695,-0.617830753326416,1.0656533241271973,,,,,
7.922072000000071,135.9223547992982,-33.267852019349725,30.634678292330157,-0.8014559745788574,-0.5149195790290833,0.34056398272514343,,,,,
7.931589999999915,143.3858601193765,-33.11862109541388,29.581651370605062,-2.0963780879974365,-0.42898035049438477,-1.1288620233535767,,,,,
7.9411119999999755,149.64535293030946,-32.323141088462194,29.880981783941387,-2.73811674118042,-0.0894094705581665,-1.0786348581314087,,,,,
7.9506209999999555,154.01044701407076,-31.113813602221082,32.115877310764475,-2.472970962524414,-0.13692519068717957,-2.073377847671509,,,,,
7.960303999999951,156.69755176355795,-29.956072733394215,36.029808721157686,-1.3573038578033447,-0.3383064866065979,-1.0707404613494873,,,,,
7.969806000000062,157.7876490059947,-29.53518963488214,40.911982895321216,-0.10383495688438416,-0.8242194652557373,-0.9202104210853577,,,,,
7.979323000000022,158.5297053424731,-29.647134453040827,45.45954819886049,0.8855921030044556,-1.057664155960083,-1.2653616666793823,,,,,
7.988826999999901,159.61672181248107,-29.740294423238936,48.487615816344636,1.355830192565918,-0.9165874719619751,-0.8127496242523193,,,,,
7.998344999999972,160.52263394996143,-29.846810276149466,49.708238642076104,1.0743470191955566,-1.0815105438232422,-0.5468999147415161,,,,,
8.007851999999957,161.60695707641332,-30.09157573497113,49.59560933151536,0,-1.027267336845398,-0.4670025110244751,,,,,
8.017182000000048,162.51022566391654,-30.26817902414667,49.175640341695974,-1.1892693042755127,-0.478018581867218,0.4006858468055725,,,,,
8.026687999999922,161.58012807525117,-30.627593311911422,49.88300812061451,-1.8981349468231201,-0.3268493115901947,0.645648181438446,,,,,
8.036276999999927,158.4538557684226,-31.442056921086603,52.61868807882649,-2.022568702697754,-0.13055121898651123,1.7962112426757812,,,,,
8.045781999999917,152.29161603315265,-32.49948702146747,58.12670266691645,-1.5770819187164307,0.06255966424942017,2.081019878387451,,,,,
8.055297999999993,143.11557606407536,-32.69476201326272,65.73870180386473,-0.8364883661270142,-0.03440195322036743,2.29166316986084,,,,,
8.064728999999943,132.38357722226817,-31.26596357020235,73.78158439345827,-0.20604491233825684,0.21367532014846802,3.5311543941497803,,,,,
8.074247000000014,120.79318397584507,-28.380856103696818,80.5270171472071,-0.2135554552078247,0.2758573293685913,3.621614933013916,,,,,
8.083754999999883,110.12491395665221,-24.841319944081512,84.5140283503374,-1.120606780052185,-0.03044915199279785,2.988105058670044,,,,,
8.093262999999979,100.91606962302632,-21.893615989440484,85.52963325985236,-2.2869884967803955,0.5203403234481812,4.235442638397217,,,,,
8.10276900000008,91.14313373803652,-20.560017129593486,85.05258660617986,-3.166360378265381,-0.5079742670059204,2.828221082687378,,,,,
8.112280000000055,82.80637499703418,-21.31399649779648,84.75535658332039,-3.411684274673462,-0.6951345205307007,2.822209358215332,,,,,
8.121803,75.34223632061754,-23.486113625115028,86.1392420034128,-3.011719226837158,-0.202484130859375,2.5405972003936768,,,,,
8.131298000000015,67.93714290938556,-25.648066968755863,89.34297226797712,-2.1530323028564453,0.30238765478134155,2.221250057220459,,,,,
8.140992000000097,60.8013910631299,-26.751505434498974,93.28922171341534,-1.2990071773529053,0.239435613155365,1.4863526821136475,,,,,
8.15050199999996,55.216874700283206,-26.60058075576647,96.43127253309868,-0.5007229447364807,0.2766856551170349,0.9867638349533081,,,,,
8.160024000000021,50.97994271453907,-25.51928196273303,98.03816057918004,0,0.14128351211547852,0.2600448727607727,,,,,
8.169529000000011,48.03600547490187,-24.17299005350945,98.31926509945579,-0.21206149458885193,-0.20857438445091248,-0.5019234418869019,,,,,
8.179043999999976,46.5635020477223,-23.42538349938968,97.87631325159556,-0.608809769153595,-0.24946078658103943,-0.1768154799938202,,,,,
8.188368999999966,45.3276649658578,-23.58209866978793,97.9189744678789,-0.8011528253555298,-0.24883317947387695,-0.41233110427856445,,,,,
8.198063000000047,43.095450346346006,-24.540595057209707,99.63733486490054,-0.5756168365478516,-0.13659095764160156,-0.449840784072876,,,,,
8.207568999999921,38.98081068479308,-25.79195821013654,103.39627598019008,0.2942183315753937,0.826452910900116,0.7100459933280945,,,,,
8.217087999999876,32.21758107384985,-26.587992918350718,108.43349576452344,0.5801495909690857,0.49790191650390625,-0.7819003462791443,,,,,
8.226599999999962,26.727773090729794,-27.460187421749037,112.72323268265721,1.582834243774414,0.36016812920570374,-0.3287067711353302,,,,,
8.236110999999937,23.037332759768397,-27.28260331387212,115.32829183023318,2.045041561126709,1.3633224964141846,1.8792197704315186,,,,,
8.245613999999932,18.579992996036953,-26.204199235510075,115.3209588473557,1.811280369758606,1.1556570529937744,0.7139176726341248,,,,,
8.255120000000034,14.498583347684885,-25.93552992966958,112.63008462581884,1.8657609224319458,0.7628490924835205,0.30084919929504395,,,,,
8.264636999999993,10.949885343641174,-26.359979749635446,108.7448832933594,1.8581279516220093,1.245084524154663,1.9865939617156982,,,,,
8.274145999999973,5.707830123624079,-27.155151435073805,105.46883851004245,1.4523940086364746,1.0196713209152222,1.8098859786987305,,,,,
8.283656000000065,-1.003186599410061,-28.67887634936865,104.2788048433892,1.3442015647888184,0.4916624426841736,1.2522459030151367,,,,,
8.29315900000006,-8.605163014123038,-29.953243467306795,106.03976804737508,1.4182389974594116,0.7941673994064331,1.7564117908477783,,,,,
8.302678999999898,-17.660571946128737,-29.809682078501318,110.38651937862218,1.2300941944122314,1.1891947984695435,1.4130456447601318,,,,,
8.312185,-27.075329452124972,-28.34118072489777,116.10836432321702,0.92580246925354,1.2571191787719727,0.6197999119758606,,,,,
8.321523999999954,-35.174623633639506,-26.11410840835297,121.69351679297816,0.47069332003593445,1.6500513553619385,0.6674066781997681,,,,,
8.33103200000005,-41.93926030656783,-24.01233939562723,126.04119628595305,-0.3407710790634155,1.8677617311477661,0.2937479019165039,,,,,
8.34062300000005,-47.47229302672559,-23.142901265627167,129.11218854016883,-1.1610839366912842,1.8043636083602905,-0.1501496434211731,,,,,
8.350132999999914,-51.67375296234587,-23.822533801916105,131.2224477190326,-1.767823338508606,1.603024959564209,-0.47500067949295044,,,,,
8.359649999999874,-54.24003519621818,-25.501647269288174,132.69967139823183,-2.3771567344665527,1.185860276222229,-0.9516429305076599,,,,,
8.36916199999996,-55.03867247674536,-27.41965598107065,134.2161110473701,-2.9115049839019775,1.0222797393798828,-0.9347549676895142,,,,,
8.37858499999993,-54.98796336018291,-28.75024624286803,136.12420274892452,-3.1464920043945312,0.6949208974838257,-0.5997108221054077,,,,,
8.388089000000036,-54.23147731623173,-28.70044003020023,138.20834890292548,-3.6081087589263916,0.43675604462623596,-0.5740228891372681,,,,,
8.397604999999885,-52.776689711445194,-27.584755736166066,140.74348292433277,-4.15480375289917,0.5267465114593506,-0.2751932144165039,,,,,
8.407108999999991,-50.91202297279147,-26.31167605730626,143.66616107761524,-4.357259273529053,0.5980278253555298,0,,,,,
8.416625999999951,-48.06211986171974,-25.541716335053824,146.08541787176637,-4.296116352081299,0.6730160713195801,-0.1854945421218872,,,,,
8.426128000000062,-44.341061837362574,-25.831049605601095,147.29836965988298,-3.7660679817199707,0.7966220378875732,0.5813665986061096,,,,,
8.435639999999921,-40.62134416681575,-27.252720976931954,146.98755016550223,-2.5638978481292725,0.09848260879516602,-0.04409879446029663,,,,,
8.445173000000068,-35.94407045336357,-29.23845725253686,145.46078620977676,-1.115333080291748,-0.03863978385925293,0,,,,,
8.454848999999967,-31.61287599655258,-31.47591481429458,143.6636577366097,0.0997270941734314,0.04426947236061096,0.5672575831413269,,,,,
8.464353000000074,-29.401393914659135,-33.94782367023807,142.81288227146686,1.0291411876678467,-0.5665345191955566,0.02749413251876831,,,,,
8.473864000000049,-28.71757890570267,-36.39775208937394,143.77881816688273,1.3133050203323364,-0.6080421209335327,0.41960811614990234,,,,,
8.483377999999902,-30.08640256250992,-38.72321549553847,146.75445841276095,0.9485260248184204,-0.2811559736728668,0.8687496781349182,,,,,
8.492872000000034,-33.618754221547626,-40.699704689005145,151.0669740203548,0.6235489249229431,-0.29670846462249756,1.8719879388809204,,,,,
8.502410000000054,-37.03671082990332,-41.294045365073345,154.6057198980106,0.33486729860305786,0.33386462926864624,2.3462417125701904,,,,,
8.511911000000055,-39.43681941949135,-40.725823596935115,155.6023042332888,-0.22274494171142578,0.8128998279571533,-0.07758551836013794,,,,,
8.521424999999908,-40.966791271878726,-40.783671914330625,154.5091125307524,0.4118654131889343,0.7459304332733154,0.06702196598052979,,,,,
8.53092700000002,-40.866218122207826,-41.55090447800269,151.57817059249618,1.7659778594970703,0.5571177005767822,0.592068612575531,,,,,
8.540437999999995,-39.10890259635526,-42.0923927528463,147.15579902372505,2.616831064224243,0.7331939339637756,1.145599603652954,,,,,
8.549956000000066,-38.08065530902046,-42.5545884743003,143.4012987714064,3.298208236694336,0.41199007630348206,0.7392130494117737,,,,,
8.559469000000036,-38.62548499732755,-42.6745133503407,141.9374880517212,3.4774703979492188,0.4880850315093994,1.5574402809143066,,,,,
8.56897099999992,-40.65219858831737,-41.74417386011022,142.60776159121022,2.4869143962860107,0.2797686755657196,0.47702306509017944,,,,,
8.578485,-43.51896155317718,-40.13284034274638,145.32362589286276,0.9487777352333069,0.6242040395736694,0.6848477721214294,,,,,
8.587999999999965,-47.480773994304705,-38.14631169784983,148.9962145990927,-0.4617062211036682,0.7945177555084229,0.9263842105865479,,,,,
8.59733099999994,-50.91856367054947,-35.59949529523188,151.5454270812838,-2.0999510288238525,0.7516487240791321,0,,,,,
8.606909000000087,-52.60125942582474,-33.22303224814341,152.26806949886733,-3.54726505279541,0.9763796329498291,-0.0762394368648529,,,,,
8.61634499999991,-53.1601933232926,-31.84663661376452,151.36062985219257,-3.859562397003174,0.9950821399688721,0.2226281762123108,,,,,
8.625860999999986,-52.75476173098898,-31.120204088377314,148.6196227943123,-3.3136463165283203,0.7337176203727722,0.5663868188858032,,,,,
8.635371000000077,-51.89031308271176,-30.488942826862136,144.68584823688684,-2.3921005725860596,0.42747762799263,0.1649450659751892,,,,,
8.644884000000047,-51.38347311575412,-29.83499093794674,141.1993866829718,-1.4938175678253174,0.06661111116409302,-0.5673553943634033,,,,,
8.663894999999911,-51.42563176359018,-27.144157182471588,137.9945981178289,-1.4971508979797363,-0.13113075494766235,-1.1418143510818481,,,,,
8.673412999999982,-51.579151721491264,-25.69011717877179,138.38700347297143,-3.109198570251465,-0.07905590534210205,-1.1042797565460205,,,,,
8.682908999999881,-51.50601109429066,-25.36194560058609,139.6140594802089,-4.183724403381348,0.43627360463142395,-0.27541378140449524,,,,,
8.692426000000069,-51.14160791290045,-25.9384892491544,139.64814194667636,-4.388005256652832,0.4185483157634735,-0.9257186651229858,,,,,
8.701939999999922,-49.17485302280831,-27.187153240085458,137.61997336146567,-4.007359027862549,0.1359241008758545,-0.8039829730987549,,,,,
8.711442999999917,-45.69322942468192,-29.4100798785393,134.46137543222264,-2.9145193099975586,0.1835446059703827,-0.47033071517944336,,,,,
8.720956999999999,-42.119739778447254,-32.16889213295705,130.81492561812868,-1.3140487670898438,0,0,,,,,
8.730663999999933,-39.045994099493676,-34.45438977207983,127.17159219410351,-0.3157868981361389,-0.4767887592315674,-0.34048405289649963,,,,,
8.740174999999908,-36.6930883445194,-36.48973841187217,125.00623008754084,0.2625684142112732,-0.43973854184150696,-0.1409878134727478,,,,,
8.74966500000005,-35.87467095218846,-38.473589738618344,124.9526025871169,0.7381910085678101,-0.3559683859348297,0.12576991319656372,,,,,
8.75917000000004,-36.133040654110864,-39.87009428248258,126.2522187237543,0.5179749131202698,-0.18897759914398193,0.393591046333313,,,,,
8.768688999999995,-36.86969242249448,-41.02140183587063,128.22992172162265,0.19376212358474731,0.199311763048172,0.5526697039604187,,,,,
8.77821300000005,-37.787281686191655,-42.314819180569664,129.94673703560497,0.3308446407318115,0.3890361189842224,0.6092362999916077,,,,,
8.787706000000071,-37.77463445743663,-43.53547642634697,130.0958427599802,0.763943612575531,0.478567510843277,0.6228367686271667,,,,,
8.797215999999935,-36.32837542097766,-44.668663165831056,128.0782660829002,1.5637097358703613,0.6329339742660522,1.0635840892791748,,,,,
8.806726000000026,-34.228636823311355,-45.90732644443848,124.25244793288779,2.800691604614258,0.4800214171409607,1.3943150043487549,,,,,
8.816250000000082,-31.76648339121703,-47.20470493814754,119.55964627743785,3.981435775756836,0.3149987757205963,1.024813175201416,,,,,
8.825751999999966,-30.275760982139328,-48.78658989206655,115.52473938624564,3.8687565326690674,0.6022850275039673,1.2181789875030518,,,,,
8.835268999999926,-31.394598149807493,-50.795479719164106,113.29027278824756,3.0448012351989746,0.7803739905357361,1.3192163705825806,,,,,
8.844767999999931,-34.90428968086754,-52.40921000407689,112.85531192868191,1.6728448867797852,0.8159393072128296,1.7240984439849854,,,,,
8.854289999999992,-40.07731886995774,-53.324043890318066,114.34154859354196,0.841891884803772,0.9669956564903259,1.821346640586853,,,,,
8.863798000000088,-46.161118248913375,-53.11680638606693,117.17656607286165,0.29847580194473267,1.30246901512146,0.6719714403152466,,,,,
8.873129999999946,-52.90859251883942,-51.74718444612103,120.292653014189,-0.5382499694824219,1.165006160736084,0,,,,,
8.882716999999957,-59.09792775843971,-49.860235705402616,123.77379457539638,-0.8097267150878906,0.9055931568145752,-0.4053879678249359,,,,,
8.892237000000023,-63.30522871546121,-47.7602336889367,126.9335842856021,-1.1034959554672241,1.3649158477783203,-0.1901739090681076,,,,,
8.901750999999877,-66.55529387446747,-45.91113077202908,129.65006260471537,-1.5950148105621338,1.2650635242462158,-0.8760508298873901,,,,,
8.911258000000089,-69.02913344040127,-44.73357382366289,133.11608858493082,-2.21738862991333,0.8859972953796387,-1.342219352722168,,,,,
8.920761999999968,-70.28541787462633,-44.14348629850082,137.51109115916213,-3.2670350074768066,0.6368741989135742,-0.6773554682731628,,,,,
8.930276000000049,-70.1309466579045,-43.860066559006725,142.24854466113163,-4.761876583099365,0.10412830114364624,-0.12378370761871338,,,,,
8.939761999999973,-67.38036245952554,-43.85150084827542,146.52067308670644,-6.334592819213867,0.09051495790481567,0.3372824192047119,,,,,
8.949299999999994,-61.970851222325,-44.35157154470176,148.6088063467991,-6.645135402679443,0.2418035864830017,1.3251246213912964,,,,,
8.958726999999953,-54.11221474040737,-44.82418058921193,147.2272600522628,-5.337808132171631,0.09091809391975403,1.5078794956207275,,,,,
8.968227999999954,-46.30285635981051,-44.81075794169543,144.80490324097573,-3.3019495010375977,-0.6153392195701599,1.047223448753357,,,,,
8.977746999999908,-38.96055248387485,-44.070570777762086,144.0388279162439,-1.184556007385254,-0.9543284177780151,0.5603459477424622,,,,,
8.987433999999894,-31.763129208115156,-42.47936683847846,145.13819418566436,0.029577434062957764,0.2549036145210266,1.9089841842651367,,,,,
8.996947000000091,-27.913491465026024,-41.14628237577297,148.08273170082416,0.6884136199951172,0.03377413749694824,1.1090189218521118,,,,,
9.006433000000015,-25.93195696878403,-41.11103083975834,152.52789913720952,1.046581506729126,-0.4479905962944031,-0.5367384552955627,,,,,
9.015965999999935,-23.533610424520788,-42.5061217818398,157.3171253758044,0.6141008734703064,0.21372327208518982,1.453326940536499,,,,,
9.025470000000041,-22.06425049871222,-45.07669089751072,161.0217731034765,0.05634957551956177,0.21923968195915222,1.8611044883728027,,,,,
9.03498999999988,-20.685167626277106,-48.09793262347333,162.6960005493364,-0.6221333742141724,-0.3193932771682739,0.5132297873497009,,,,,
9.04431599999998,-17.505666290919727,-51.13222990465188,162.17321199507901,-1.0398041009902954,-0.16846096515655518,0.5328641533851624,,,,,
9.054010999999946,-13.63379397713849,-53.59786053615544,159.8213524022854,-0.7674524784088135,-0.3086186349391937,0.9851320385932922,,,,,
9.063519999999926,-10.473948319753614,-54.59584400286795,156.82646205406834,0,-0.6352558135986328,0.39320093393325806,,,,,
9.073032999999896,-9.087172193313892,-54.10889745130413,154.77510521727595,1.1914803981781006,-0.5859973430633545,0.24073785543441772,,,,,
9.082535999999891,-9.95851606197865,-52.82655692989935,154.33234206980285,2.6295337677001953,-0.4193882942199707,0.1324397325515747,,,,,
9.092051999999967,-12.559330576019482,-51.05353851691516,155.11663108152266,3.9769673347473145,0.28626301884651184,0.4718743562698364,,,,,
9.101554999999962,-16.297180108396102,-49.57836246756398,155.72813965606306,4.15275764465332,0.5389478206634521,0.05090188980102539,,,,,
9.111061000000063,-19.57662072034787,-49.50546362774179,155.3131759442214,3.259324312210083,0.34692302346229553,-0.9274982213973999,,,,,
9.120576999999912,-20.98878213594965,-50.50472688526793,154.02001128559365,2.098374843597412,0.652125358581543,0.24665290117263794,,,,,
9.130087999999887,-23.396142561413548,-51.73738765729878,152.77830788470595,0.6806363463401794,1.1877074241638184,0.7257891297340393,,,,,
9.139435000000049,-27.363847260240615,-52.6581556922942,152.3219607209026,-0.5643525123596191,0.3224000930786133,-0.9781046509742737,,,,,
9.148932999999943,-30.328506618121462,-52.3750156719247,153.01400643320036,-1.3453140258789062,0.9342828989028931,0.4859449863433838,,,,,
9.158443000000034,-34.13667279064089,-50.45995340763152,154.3848423414383,-1.814887285232544,1.0689308643341064,0.583497941493988,,,,,
9.16803200000004,-37.94814367414898,-47.21633968942234,156.25234740917224,-1.9493660926818848,0.5043085217475891,-0.3188151717185974,,,,,
9.177457000000004,-39.44203630889555,-43.42727409264628,158.42636103781217,-2.476956367492676,1.2683756351470947,0.7350518703460693,,,,,
9.186967999999979,-40.37250725556586,-40.43490729614422,160.52990000708854,-3.4262638092041016,1.2542189359664917,0.7083965539932251,,,,,
9.196478999999954,-40.057241456279016,-39.17486849797758,162.1482126300696,-4.716946601867676,0.997565507888794,0.7995570302009583,,,,,
9.206001000000015,-37.55367580620417,-39.87465780824413,162.42307385523588,-6.0656938552856445,1.194324016571045,1.3608076572418213,,,,,
9.215496999999914,-32.89628691170494,-41.97766592342177,160.17622626594382,-6.59048318862915,0.6842566728591919,1.155928134918213,,,,,
9.225009999999884,-25.896991243577936,-43.562413389258886,154.72056741014697,-5.500853061676025,0.3102562427520752,1.753868579864502,,,,,
9.23452199999997,-18.603691053977016,-43.63809054201051,148.21141765050277,-3.617642879486084,-1.0595349073410034,0.11790817975997925,,,,,
9.244224000000031,-11.772341969111414,-42.65208893339655,143.20403328568054,-1.3065931797027588,-0.674584686756134,1.5462501049041748,,,,,
9.253735000000006,-8.780574854253604,-41.508911264341876,141.08642143931075,0.492603600025177,-1.0048474073410034,0.3668861389160156,,,,,
9.26323699999989,-8.548449798351383,-41.32592442463685,142.38804381482066,1.572505235671997,-1.2068812847137451,-1.0196354389190674,,,,,
9.272756999999956,-9.757964995680458,-42.27551158452847,146.44882198399466,1.3344366550445557,-0.3422718644142151,0.07278025150299072,,,,,
9.282253999999966,-13.473636712379971,-44.149331889343934,151.77255291831403,0.5878480076789856,-0.17726965248584747,0.37270432710647583,,,,,
9.291768999999931,-17.644965489778208,-46.2168393602905,156.57340081764832,0,0.15807516872882843,0.3987693190574646,,,,,
9.30128999999988,-20.44056588960748,-48.157957184839475,158.95604022582802,-0.5096175670623779,0.5643599033355713,0.5961641669273376,,,,,
9.310791999999992,-21.204110966419528,-50.47026945318883,158.0558894265667,-0.32635822892189026,0.5788833498954773,0.03065270185470581,,,,,
9.320298999999977,-19.600488077860614,-53.07395455723382,154.2278992004885,0.7527655363082886,0.4369529187679291,-0.30878233909606934,,,,,
9.329817000000048,-16.19876908461434,-55.089787354704775,148.35840463448724,2.0331125259399414,0.6817457675933838,0.1369144320487976,,,,,
9.339326999999912,-13.38425253768705,-56.39485765589191,142.1031913696201,2.8230366706848145,0.9049403667449951,0.2862301468849182,,,,,
9.348835999999892,-12.346580151577285,-57.731216762954546,136.8793358475342,3.4867091178894043,0.9641690254211426,0.14875811338424683,,,,,
9.358345999999983,-12.282608493443673,-58.982992554341834,132.85529336651769,3.505247116088867,0.8837261199951172,0.49458956718444824,,,,,
9.367854999999963,-13.356856249209947,-59.890032396088486,130.27814175765528,2.7098004817962646,1.1112782955169678,0.6867257356643677,,,,,
9.37735500000008,-16.576513718719806,-60.69264751713642,129.3331031937445,1.8261585235595703,1.0273778438568115,0.809683084487915,,,,,
9.38688000000002,-21.149761483410494,-61.12909483167156,129.71707362368298,0.6917552351951599,0.9010684490203857,0.43914130330085754,,,,,
9.396398999999974,-26.212817363740783,-60.97920920091092,130.84978566523603,-0.25442934036254883,1.197758674621582,0.6062282919883728,,,,,
9.405717999999979,-31.899179107945194,-60.19669130567829,132.04950149516048,-0.9931348562240601,1.2489858865737915,0.9859405755996704,,,,,
9.415226999999959,-37.18646285674433,-58.72863550033166,132.92608538129562,-1.3439059257507324,0.8503791689872742,0.1063535213470459,,,,,
9.424739000000045,-40.72627074733395,-56.51924465100973,133.32376756491897,-1.5196559429168701,1.0303179025650024,0.31375423073768616,,,,,
9.434344999999894,-43.31315440775818,-53.874868789561624,133.50120131533427,-1.6540831327438354,0.8767625093460083,-0.051795899868011475,,,,,
9.44382900000005,-44.808008952894205,-51.16401558003353,133.85832211345215,-1.989800214767456,0.523227334022522,-0.30305352807044983,,,,,
9.45335,-44.67116336279088,-48.706186358287255,134.43477367305707,-3.099688768386841,0.25326335430145264,-0.6337623000144958,,,,,
9.462860000000092,-42.80084568272276,-47.14910184146331,135.14666073595959,-4.611339569091797,0.053347110748291016,-0.6357067823410034,,,,,
9.472369999999955,-38.57961845715157,-46.94804925846817,135.10104907713784,-6.2325215339660645,0.11533936858177185,0.24702036380767822,,,,,
9.48188099999993,-29.908641339293666,-47.79999332580416,131.8824803206806,-6.903110504150391,0.7155991792678833,0.2725517153739929,,,,,
9.491297000000031,-17.18915148068049,-48.73695250441143,123.57311957220564,-5.458059310913086,1.1653249263763428,1.7138302326202393,,,,,
9.500802999999905,-3.3451295460985517,-48.7541043579033,111.85107032736008,-2.306021213531494,-0.873104989528656,0.12406963109970093,,,,,
9.510518000000047,12.468453856893786,-46.85302552689167,100.51047388938862,0.060152411460876465,-0.6225203275680542,0.9672168493270874,,,,,
9.520027000000027,25.834159283832395,-44.62189910283918,92.10967029050316,2.215282917022705,-0.9412441253662109,2.646467685699463,,,,,
9.529524000000038,35.05301709847096,-43.18163406029457,88.19943735155563,3.358499050140381,-1.9575729370117188,2.262476921081543,,,,,
9.539037000000008,41.8259824883052,-43.67154015134963,88.73529027064262,1.9092659950256348,-1.1104726791381836,0.7349907159805298,,,,,
9.548545999999988,46.8645701595063,-48.04912006980416,89.71190608674026,1.1064445972442627,-0.8107650279998779,1.3634121417999268,,,,,
9.558072000000038,50.313453615955986,-54.46113242447111,90.264092996012,0.11575210094451904,-0.7240611910820007,0.9151808023452759,,,,,
9.567399000000023,52.50704169837938,-59.98442078560271,90.98667122173873,-1.8975014686584473,-0.08135753870010376,0.9606618881225586,,,,,
9.576982000000044,55.77375937301882,-63.582401520255914,88.37881244857908,-2.6938679218292236,0.09907171130180359,0.5844050645828247,,,,,
9.586516000000074,60.966726014165836,-64.22711342089909,82.04049733976933,-1.959259033203125,-0.19509616494178772,0.06410868465900421,,,,,
9.595923999999968,65.22116552815889,-61.670940231660616,76.14906025839667,-1.178156852722168,0.046420395374298096,0.10851484537124634,,,,,
9.60561000000007,67.85542405846498,-57.588342789571215,70.18376759010258,-0.3049352765083313,0.1301330327987671,-0.12319164723157883,,,,,
9.62462400000004,67.98527380537088,-50.72967095241686,58.603105944062044,2.000720977783203,0.6174117922782898,1.078012466430664,,,,,
9.634137999999894,63.36336615680247,-49.2738954534291,55.05416907889352,1.5793339014053345,1.682037591934204,2.1722323894500732,,,,,
9.643651999999975,55.019749719589186,-49.46146939477404,51.390924380951475,1.0623595714569092,1.2855427265167236,1.7031750679016113,,,,,
9.653160999999955,45.3642662092397,-50.12020094347296,48.65901022338285,-0.09089469909667969,1.4807875156402588,2.7759742736816406,,,,,
9.662683000000015,33.91562756403954,-50.04996492231929,46.43918599137352,-1.8388551473617554,3.325681209564209,5.0112624168396,,,,,
9.67201799999998,20.064308463169986,-49.06816388354633,43.04381014490634,-2.6712357997894287,2.4501776695251465,3.014648914337158,,,,,
9.681520000000091,8.614388065472733,-47.3189918082983,38.577373996220885,-2.583519220352173,1.518831729888916,2.6363399028778076,,,,,
9.691031000000066,-1.0506418529652966,-45.28156744630965,34.20347036966322,-1.9840619564056396,2.4921915531158447,3.5114123821258545,,,,,
9.700534000000061,-12.61529213305397,-43.92480494318844,30.374481501766383,-0.5697958469390869,1.96053946018219,1.0949705839157104,,,,,
9.719560999999885,-34.58578699075481,-42.15404388034841,27.35064522110506,1.0502846240997314,1.7490423917770386,-1.2533379793167114,,,,,
9.729074999999966,-45.29440628730319,-41.54439747912894,27.413135940746823,1.137519359588623,1.5395069122314453,-3.0125789642333984,,,,,
9.738583999999946,-54.511171415393164,-41.46099396545336,27.873505067320064,0.7738306522369385,1.0440154075622559,-3.220191717147827,,,,,
9.748106000000007,-61.50182331766824,-41.93906246091665,27.713901622485565,0.13734197616577148,2.106135845184326,-1.517870545387268,,,,,
9.757681000000048,-69.38231843250901,-43.0820033578717,26.811968622484905,-0.6274348497390747,2.2148871421813965,-2.0042314529418945,,,,,
9.767108999999891,-77.61119669812052,-44.638612823056064,25.5357516430011,-0.9747368097305298,1.6326450109481812,-2.340365409851074,,,,,
9.786131999999952,-92.61999502434817,-46.20975127600221,20.932953094998876,-0.28201138973236084,2.133185863494873,0.21423359215259552,,,,,
9.795638000000054,-101.1926535062066,-45.20539133719321,17.866241338777,0.6530510783195496,1.7523120641708374,0.1425519734621048,,,,,
9.805163999999877,-109.28195462404865,-42.721160820171626,14.619221364078818,1.6131994724273682,2.1249780654907227,1.6141458749771118,,,,,
9.814660000000003,-117.28527124582381,-39.35299431555211,10.89261228123648,2.3590831756591797,2.240048408508301,0.9104285836219788,,,,,
9.824170000000095,-125.48474755601853,-36.05615532738388,7.066958142443478,2.03523588180542,2.4429726600646973,0.8577057123184204,,,,,
9.833691999999928,-134.6328620626108,-33.23258218851527,4.994603680780323,1.5021755695343018,1.8305082321166992,0.769719660282135,,,,,
9.843200999999908,-143.92078564597847,-31.155102950782616,4.717683785914696,0.5278559327125549,2.208308219909668,1.8946597576141357,,,,,
9.852787000000035,-154.79917335069314,-29.444060966788122,6.178208043361067,-0.6321725845336914,1.8593709468841553,1.3446812629699707,,,,,
9.862247999999909,-165.51560963741989,-27.187264297113074,8.705241949048062,-1.046908974647522,0.6545184254646301,0.0753832459449768,,,,,
9.87172499999997,-173.31391103218562,-24.52987021338717,10.782128462284838,-1.1185901165008545,0.4007650911808014,-0.04213523864746094,,,,,
9.881415999999945,-178.98528021704507,-21.9230429499739,11.54638191768313,-1.059657335281372,0.14279814064502716,-1.600464940071106,,,,,
9.890924999999925,177.12418641225412,-19.723424000712413,10.799398122761911,-0.866844892501831,0.1394941210746765,-1.345043420791626,,,,,
9.900433999999905,174.27618510413905,-18.36963994911401,8.953098879806149,-1.1458263397216797,0.48618993163108826,-1.5402007102966309,,,,,
9.909955000000082,171.41995439195037,-17.32975876545554,6.7325389911535645,-1.4974597692489624,0.6190396547317505,-2.282322406768799,,,,,
9.919460999999956,168.37137072580953,-16.473197634199423,4.889063466260048,-1.7605681419372559,0.7460992932319641,-1.8079721927642822,,,,,
9.928965999999946,164.9076470336036,-16.272372358526333,4.081906966538347,-1.9892454147338867,0.7353841066360474,-1.684226632118225,,,,,
9.938474999999926,161.03065620729296,-16.584720654400716,4.407622028758179,-1.9710561037063599,0.6082229614257812,-1.285961389541626,,,,,
9.947994999999992,156.76078955428784,-17.103653277722064,5.412187597016108,-1.491490125656128,0.3811834156513214,-0.5861800312995911,,,,,
9.957499999999982,152.25647789316386,-17.966362135921578,6.457517720111499,-0.6906594038009644,0,-0.27329879999160767,,,,,
9.967018000000053,148.17771618446375,-19.400184337313345,6.889542785042299,0.07324081659317017,-0.11663252115249634,0.213844895362854,,,,,
9.976521999999932,144.66022559862338,-21.450177709710076,6.298678068713233,0.7323919534683228,-0.09610679745674133,0.6328388452529907,,,,,
