timestamp,Roll,Pitch,Yaw,Acc X,Acc Y,Acc Z,Gyro X,Gyro Y,Gyro Z,Acc Magnitude,Gyro Magnitude
0.0,-50.41001465681928,49.93199418450159,-158.0816524378215,-0.03278493881225586,0,-0.03519999980926514,,,,,
0.009512999999969907,-50.3961716039895,49.89529577948504,-158.17622337315933,-0.031001687049865723,0,-0.031241297721862793,,,,,
0.0190300000000434,-50.35581201588936,49.88384768041384,-158.229767002828,-0.040158629417419434,0,-0.030956923961639404,,,,,
0.028551999999990585,-50.30124921992035,49.89087192232794,-158.228447095912,-0.04813140630722046,0,-0.034053266048431396,,,,,
0.03805099999999584,-50.25048771326535,49.906893041950724,-158.21226258145026,-0.053563058376312256,0,-0.03142714500427246,,,,,
0.047563999999965745,-50.23449362432124,49.92071335892528,-158.2044148394222,-0.053651511669158936,0,-0.03559485077857971,,,,,
0.05706399999996847,-50.234862312436945,49.91519598492096,-158.20767051648818,-0.05054152011871338,0,-0.03271079063415527,,,,,
0.06657900000004702,-50.25360940066427,49.88422457110651,-158.2522940722295,-0.043569982051849365,0,-0.03476607799530029,,,,,
0.07609200000001692,-50.266209510913384,49.836147214924225,-158.31291721584114,-0.042891621589660645,0,-0.03506860136985779,,,,,
0.08560799999997926,-50.25807709851858,49.78015987092576,-158.33707259379062,-0.043034911155700684,0,-0.033421874046325684,,,,,
0.09511699999995926,-50.22593077230158,49.730103189420866,-158.29839196688107,-0.041647911071777344,0,-0.03120073676109314,,,,,
0.1046280000000479,-50.16947325033278,49.70624435817315,-158.24695960255806,-0.045821189880371094,0,-0.035798341035842896,,,,,
0.11413400000003548,-50.07883634485269,49.70374900090076,-158.17392694658034,-0.05097341537475586,0,-0.037337273359298706,,,,,
0.123662999999965,-49.961685659249945,49.7170793810326,-158.08584316646883,-0.0564347505569458,0,-0.0379926860332489,,,,,
0.13315499999998792,-49.84140772645064,49.74003384018398,-157.9697351272019,-0.06715559959411621,0,-0.03517374396324158,,,,,
0.14266599999996288,-49.743090663265754,49.75605064265988,-157.87919890112002,-0.07649087905883789,0,-0.0327109694480896,,,,,
0.1521820000000389,-49.67477249091464,49.75028589855315,-157.8207333590679,-0.07826399803161621,0,-0.02846890687942505,,,,,
0.1616830000000391,-49.64702003442519,49.7268921651729,-157.8709775844251,-0.07682013511657715,0,-0.03183808922767639,,,,,
0.17120199999999386,-49.65371050390824,49.689062868429026,-157.93756598949642,-0.07407581806182861,0,-0.03747597336769104,,,,,
0.18070799999998144,-49.68125263508128,49.651027670138845,-157.9858381576145,-0.06694191694259644,0,-0.04659545421600342,,,,,
0.19023200000003726,-49.71516098992108,49.6257665745864,-158.02577157294155,-0.06015157699584961,0,-0.051644861698150635,,,,,
0.19973500000003241,-49.74629322660201,49.61480283195382,-158.0407089674406,-0.05368763208389282,0,-0.05757051706314087,,,,,
0.20924200000001747,-49.75217672117792,49.60388524588649,-157.99357036986257,-0.04551529884338379,0,-0.057369887828826904,,,,,
0.21876299999996718,-49.725527749156306,49.580431110854185,-157.93844138208453,-0.03821694850921631,0.03113347291946411,-0.05267834663391113,,,,,
0.2282710000000634,-49.66121959814232,49.53021285135005,-157.8861272127196,-0.034882187843322754,0.03288176655769348,-0.04585912823677063,,,,,
0.2377800000000434,-49.554874931225584,49.441442998206895,-157.83912657927416,-0.0319858193397522,0,-0.037783920764923096,,,,,
0.24728400000003603,-49.41533392301393,49.31238205412203,-157.80327230535235,-0.02637791633605957,0,-0.031564861536026,,,,,
0.25679600000000846,-49.23514331342638,49.160315870158975,-157.7600267176539,-0.028356552124023438,-0.03021213412284851,0,,,,,
0.266303999999991,-49.03161777410885,49.002899221372765,-157.69282628380833,-0.03406178951263428,-0.06870827078819275,0,,,,,
0.27582200000006196,-48.796146764247446,48.85385544037377,-157.6472588893427,-0.04089665412902832,-0.09949666261672974,0,,,,,
0.285329000000047,-48.54655833960747,48.72704725146035,-157.53322512771678,-0.04845625162124634,-0.11941012740135193,0,,,,,
0.2947780000000648,-48.18227458794891,48.66109423549235,-157.21024391628342,-0.0616607666015625,-0.1278895139694214,0,,,,,
0.30429800000001705,-47.84886510848937,48.600478308574466,-156.83885404130388,-0.07407271862030029,-0.11790981888771057,0,,,,,
0.31380000000001473,-47.559310294991754,48.51847743927974,-156.46110327196624,-0.0842929482460022,-0.10545289516448975,0,,,,,
0.32337200000006305,-47.42459564442104,48.43249862507054,-156.18625628196747,-0.09236472845077515,-0.0844455361366272,-0.031484246253967285,,,,,
0.33289000000002034,-47.311991536160306,48.344276270545166,-155.96386361227152,-0.10314822196960449,-0.06764227151870728,-0.050795555114746094,,,,,
0.34238200000004326,-47.18486261440988,48.25619997564729,-155.75984117999096,-0.11100387573242188,-0.05730512738227844,-0.07754990458488464,,,,,
0.35190799999998035,-46.99586656804004,48.16625727375068,-155.48143431354166,-0.1022910475730896,-0.05549940466880798,-0.09972482919692993,,,,,
0.36141799999995783,-46.725662506926675,48.09547133031854,-155.1702684964125,-0.08018040657043457,-0.06112298369407654,-0.12363848090171814,,,,,
0.3709270000000515,-46.34043397542294,48.0481824457627,-154.79521303584974,-0.05657637119293213,-0.06986212730407715,-0.13732954859733582,,,,,
0.3804380000000265,-45.83106618761625,48.00858577952198,-154.22591452728466,-0.03190702199935913,-0.08092871308326721,-0.15148982405662537,,,,,
0.3899509999999964,-45.18395324766039,47.95150317946984,-153.53500460867923,0,-0.09325435757637024,-0.15374800562858582,,,,,
0.39945699999998396,-44.432958951957616,47.86991182605263,-152.80435959320582,0.026737868785858154,-0.10922443866729736,-0.1563054621219635,,,,,
0.408963999999969,-43.62596492445472,47.766976267059704,-152.09476630925354,0.06920641660690308,-0.14070779085159302,-0.17555731534957886,,,,,
0.4184780000000501,-42.71615829914344,47.62257748706129,-151.4272144164019,0.13119220733642578,-0.19528239965438843,-0.16911286115646362,,,,,
0.42798800000002757,-41.57897226107246,47.45273475531583,-150.68795412063136,0.18384480476379395,-0.2659541964530945,-0.10922417044639587,,,,,
0.43749800000000505,-40.201048052349236,47.29981201253023,-149.6778468314343,0.18813562393188477,-0.34479615092277527,-0.09112972021102905,,,,,
0.44701599999996233,-38.74899242237617,47.141509825407475,-148.40917091492148,0.22676116228103638,-0.43241769075393677,-0.2456631064414978,,,,,
0.45646399999998266,-35.98651987641922,47.244899042767756,-146.07987422580564,0.23360061645507812,-0.2901493012905121,-0.47972267866134644,,,,,
0.4660400000000209,-33.73289159043193,47.31378312498975,-143.76681426103016,0.1336449384689331,-0.21152201294898987,-0.10459858179092407,,,,,
0.4755360000000337,-31.200173886901155,47.59556907117365,-140.90933795343352,0.08963781595230103,-0.37190139293670654,-0.7771295309066772,,,,,
0.4850010000000111,-28.075865164691898,47.78366183975864,-137.7185680262065,0.20067381858825684,-0.13415423035621643,-0.03605681657791138,,,,,
0.49448900000004414,-25.65760119980551,47.776072624415534,-134.4321612808619,-0.08050316572189331,0.6140774488449097,0.7227920293807983,,,,,
0.5039890000000469,-25.683704646130156,46.631055772593484,-130.93656866125076,-0.9417503476142883,0.9794093370437622,0.40588653087615967,,,,,
0.5135269999999537,-26.685320907142636,44.69140552412045,-127.89588472374344,-0.3342057466506958,0,-0.894193172454834,,,,,
0.5230099999999993,-25.65398191050642,44.35338181622567,-126.4323952252732,-0.45236438512802124,1.223199725151062,1.5522737503051758,,,,,
0.5325239999999667,-26.221802089318636,44.7445525433438,-126.1778034878277,-0.594137966632843,1.335053563117981,0.3882441520690918,,,,,
0.5419349999999667,-26.717844324340536,44.2483451856246,-125.66463941723724,0.6987342238426208,0.3753470778465271,-0.7817450761795044,,,,,
0.5608780000000024,-23.61608906511679,46.33563615035576,-124.83821288524574,0.6814436316490173,0.5038207173347473,-0.4045613706111908,,,,,
0.5703969999999572,-20.394916081303396,47.19699672604662,-122.93184010894483,0.3923637866973877,0,-0.8924360275268555,,,,,
0.580114999999978,-15.403078140061435,48.00920743139222,-120.14339292461108,-0.22466009855270386,0.26972031593322754,0.20454680919647217,,,,,
0.5895930000000362,-11.055688927608342,49.655240500341094,-117.83713888320808,-1.5316262245178223,0.19248098134994507,-0.15593835711479187,,,,,
0.5991020000000162,-7.780543863069568,50.72543047955778,-116.56782226691335,-2.223595380783081,0.11815804243087769,0.1157829761505127,,,,,
0.6086219999999685,-6.346742671630556,51.16192961063731,-117.14162984750027,-1.7771503925323486,0.06786412745714188,0.392524778842926,,,,,
0.618139000000042,-7.066514676093134,51.93193669907895,-119.64103176408945,-1.336416244506836,-0.08103909343481064,-0.0935865044593811,,,,,
0.6276440000000321,-9.016959224838107,52.093431512295325,-123.00703133600665,-0.6846637725830078,-0.1401512622833252,-0.5505791902542114,,,,,
0.6371649999999818,-10.808589287387779,50.98498204048978,-125.56432724179382,0.4413072168827057,-0.23037397861480713,-0.49485763907432556,,,,,
0.6465080000000398,-11.320526967144248,49.661787197246014,-126.1337406718376,1.0450876951217651,-0.2530724108219147,-0.43806713819503784,,,,,
0.6560010000000602,-9.990149361838027,48.346644628256286,-124.37104619169642,1.000978946685791,-0.1259923279285431,-0.27253076434135437,,,,,
0.6655070000000478,-7.236129847085125,46.507684124589815,-120.84240542905208,1.1690757274627686,0.09526152908802032,0.2435169816017151,,,,,
0.67503099999999,-4.239743507595006,44.68426794697893,-116.89049352931067,1.0899335145950317,0.16921864449977875,0.1927676796913147,,,,,
0.6847259999999551,-1.60802100257924,43.04287905526552,-113.83872747974817,0.7842663526535034,0.18058308959007263,0.1746121048927307,,,,,
0.6942139999999881,0.20628672190822753,41.28286322078752,-112.53196967198453,0.8932341933250427,0.04804491251707077,0.42107415199279785,,,,,
0.7037370000000465,1.2807907306162687,39.98331950548692,-113.21571529525193,1.1519681215286255,-0.16866153478622437,0.8397932648658752,,,,,
0.7130660000000262,1.817816562453522,39.61433679479538,-115.15513648385198,1.2868272066116333,-0.45316022634506226,1.0322761535644531,,,,,
0.7225710000000163,2.1327573373149704,39.97890724252155,-117.40141906033745,1.4046930074691772,-0.7839588522911072,1.1477676630020142,,,,,
0.7320799999999963,2.660929065164592,41.14330972712158,-118.92663183330774,1.2781401872634888,-0.942905604839325,1.1212854385375977,,,,,
0.7414049999999861,3.505756760252397,43.153568748546505,-119.04590154959776,0.5843784213066101,-0.9464559555053711,0.53667151927948,,,,,
0.7512739999999667,4.69750334732901,45.47951435399995,-117.70665219125209,-0.37328386306762695,-0.745036780834198,-0.07268309593200684,,,,,
0.7608030000000099,5.981485648196122,47.932465726922764,-115.41520811533886,-1.310625672340393,-0.3672737777233124,-0.722109317779541,,,,,
0.7703099999999949,6.736823584598354,50.53826286441432,-113.18712116498348,-2.337421417236328,0.10502022504806519,-1.2965612411499023,,,,,
0.7798209999999699,5.9408368917026095,52.72545205183988,-111.97753399526758,-3.1215877532958984,0.5870934724807739,-0.8975118398666382,,,,,
0.7893189999999777,2.762047533925827,54.21643946810805,-112.44161284773429,-3.168302536010742,0.8819496035575867,-0.5296885371208191,,,,,
0.7988430000000335,-1.9744013890951673,54.99568219807794,-114.4063450119446,-2.887869358062744,0.698077380657196,-1.4229153394699097,,,,,
0.8083410000000413,-7.02849823633607,54.549498921516026,-117.26808266952656,-2.211117744445801,1.6293790340423584,0,,,,,
0.8178649999999834,-14.306992927199994,53.04247460554984,-120.55742262986111,-1.303861141204834,1.2638723850250244,-0.7027167677879333,,,,,
0.827205000000049,-20.82733615570292,50.964081839815044,-123.29849269429799,-0.5839663743972778,0.5355088114738464,-1.3227686882019043,,,,,
0.8368800000000647,-24.67514928176607,48.5419009606424,-124.96054038054065,-0.21358591318130493,1.264866828918457,0.04693526029586792,,,,,
0.8462359999999762,-28.314047127509223,45.96304063026348,-125.91450671017681,0.19552189111709595,1.0227258205413818,-0.3726614713668823,,,,,
0.8557279999999992,-30.70563714089314,43.67217140603731,-126.53592335882048,0.5516762733459473,0.578307569026947,-0.8901736736297607,,,,,
0.8652480000000651,-31.01441447411118,41.69914570977681,-126.93459866758856,0.850858211517334,1.0578055381774902,-0.11279815435409546,,,,,
0.8748359999999593,-30.98843684828662,39.773658096500704,-127.52489438742886,1.4768491983413696,0.7782341837882996,-0.48391762375831604,,,,,
0.88426800000002,-29.971463233059993,37.994890416902635,-128.25514087985238,2.1685550212860107,0.39291542768478394,-0.4184724688529968,,,,,
0.8937720000000127,-27.695659090197243,36.44456915169321,-129.04957966914486,2.7638182640075684,0.29308605194091797,0.33926546573638916,,,,,
0.9032799999999952,-24.60781013599293,35.009752998135696,-129.65712524346003,3.1787643432617188,-0.1916198432445526,0.2314014434814453,,,,,
0.91279499999996,-20.324629928635705,33.75182528701467,-129.65569211872034,3.292142391204834,-0.3436933755874634,1.1403470039367676,,,,,
0.9223090000000411,-15.59473825922656,33.00505896730692,-128.95159184408018,2.8635196685791016,-0.9424108862876892,0.7750164270401001,,,,,
0.9318180000000211,-9.414870695275756,32.89127326163241,-127.3460465949953,1.934895396232605,-0.7094564437866211,0.976618230342865,,,,,
0.9415000000000191,-2.832325230874859,33.40493210231648,-124.98707817585408,0.8768612146377563,-0.3371613323688507,1.3745527267456055,,,,,
0.9510030000000143,2.779467670757698,34.82546262097059,-122.48748107487553,-0.06541568040847778,-0.6630128026008606,0.6132508516311646,,,,,
0.9605330000000549,8.252686791779084,37.316321304011645,-120.1518652513409,-0.7820069193840027,-0.6239508390426636,0.1669808030128479,,,,,
0.970038000000045,13.137269707614639,40.76757396379981,-118.3372696400089,-1.0099254846572876,-0.33058983087539673,0.382548987865448,,,,,
0.9888799999999947,17.952010397382413,49.540397921925425,-117.56409681429072,-1.006374478340149,-0.7343862056732178,-1.4361835718154907,,,,,
0.9985709999999699,18.284381610965976,53.46610937716076,-118.92856238273357,-0.9941893219947815,-0.40705275535583496,-0.9925394058227539,,,,,
1.0079010000000608,15.952008661783477,56.488779711500584,-121.72361717305529,-1.2066651582717896,-0.5525417327880859,-1.8166096210479736,,,,,
1.0175980000000209,11.967489277589065,57.897946342620195,-125.78017386413777,-1.7269542217254639,-0.3221511244773865,-1.5264315605163574,,,,,
1.0270940000000337,6.724424709232512,57.39114943843433,-130.39667254899763,-1.8583288192749023,0.05454528331756592,-0.8710347414016724,,,,,
1.0366089999999986,1.0964790246084337,55.97204234962988,-134.4039291393447,-1.8997634649276733,0.22182808816432953,-0.9383770227432251,,,,,
1.0461269999999558,-4.168202844476362,54.24123594885192,-137.5044515643095,-1.923161268234253,0.4350612163543701,-0.9017882347106934,,,,,
1.055639000000042,-8.63194728763516,52.152724669823144,-140.15565731212652,-1.465071439743042,0.7106224894523621,-0.8114826083183289,,,,,
1.065150000000017,-12.692482332090435,50.086854441263775,-143.06180567995307,-0.9082260727882385,1.2121498584747314,-0.518099844455719,,,,,
1.074483999999984,-17.125679975164424,47.91254578389811,-146.6635573345799,-0.47052299976348877,1.16072416305542,-0.8812038898468018,,,,,
1.0839889999999741,-20.77278716199738,44.92880041464742,-150.71147959831382,0,1.241576075553894,-0.6211349368095398,,,,,
1.0935220000000072,-23.496656486673512,41.132020665409456,-154.80253325040857,0.4510755240917206,1.2190966606140137,-0.3664906919002533,,,,,
1.1030110000000377,-25.112568121199548,36.99666770344637,-158.53309059199597,0.6385020613670349,0.8112920522689819,-0.3138663172721863,,,,,
1.112704000000008,-24.875025469819754,32.870437896810756,-161.37576721775366,0.7692456841468811,0.49505749344825745,0,,,,,
1.1222159999999803,-23.164233124598283,29.271458759203973,-163.11873254904114,0.9198688268661499,0.10330605506896973,0.6602361798286438,,,,,
1.131717999999978,-20.108979709857497,26.716812316579144,-163.80596925189778,0.7709053754806519,-0.45368117094039917,0.8214858174324036,,,,,
1.1507440000000315,-11.050098924697089,24.142645627157542,-161.37038350272002,0.8264280557632446,-0.11627598106861115,0.8677562475204468,,,,,
1.160080999999991,-8.324923434110705,24.192690193562953,-159.01123818350743,1.1780978441238403,-0.5529612302780151,0.07120919227600098,,,,,
1.1695969999999534,-5.980369003279322,24.600629253144774,-156.54657929037188,1.654288649559021,-0.20725476741790771,0.403519868850708,,,,,
1.1790990000000647,-5.135177297227976,24.939232818318978,-154.62402215543517,2.2103681564331055,-0.21181020140647888,0.583541989326477,,,,,
1.1886090000000422,-5.4040710518515835,25.366648093843715,-153.7274703765512,2.252995491027832,-0.20103618502616882,0.14130955934524536,,,,,
1.198109000000045,-6.389504842093267,25.64457328213855,-153.86777600594024,1.633958101272583,0.13091500103473663,0.1893978714942932,,,,,
1.2078169999999773,-8.36271185988646,25.575136690115908,-154.76200834074365,0.9259960651397705,0.09397457540035248,-0.09187597036361694,,,,,
1.2173320000000558,-10.460428291259209,25.742367957922887,-155.86052832263408,-0.027362406253814697,0.08926304429769516,-0.0715552568435669,,,,,
1.2268290000000661,-12.33986929362584,26.523138961739566,-156.52263629030136,-1.0616317987442017,0.11794038861989975,-0.2557585835456848,,,,,
1.2363560000000007,-13.860086296107776,27.84947396949452,-156.28534059854186,-1.7232434749603271,-0.07861863076686859,-0.6704909801483154,,,,,
1.2456660000000284,-14.210919623314222,29.836305294464502,-155.06850155393207,-2.2076785564422607,-0.09675446152687073,-1.1028571128845215,,,,,
1.2553570000000036,-13.291365191150902,32.16767874378364,-153.053244590218,-2.755683422088623,0.08691493421792984,-0.8339198231697083,,,,,
1.2648659999999836,-11.628694204767164,34.04506283962609,-150.9097141017024,-3.0878653526306152,0,-1.077857255935669,,,,,
1.2838990000000194,-8.129118090000201,34.71008986385569,-149.79123740730782,-2.369455575942993,0.0894874706864357,-0.2423996925354004,,,,,
1.293408999999997,-8.12530883756053,33.76177946436677,-151.78126275194728,-1.3837289810180664,-0.3521072268486023,-0.43733301758766174,,,,,
1.3029209999999694,-8.494533904994746,32.14331514286531,-154.72309876278868,-0.46049177646636963,-0.2847468852996826,-0.08335119485855103,,,,,
1.3124520000000075,-9.521330461324514,29.89602550284869,-157.6133772547063,0.3220422863960266,-0.621417224407196,-0.45182427763938904,,,,,
1.3219589999999926,-10.045119353040171,27.392288283454192,-159.46021190312723,0.6762512922286987,-0.631898820400238,-0.2539888024330139,,,,,
1.3314510000000155,-10.135858485530544,24.99098949533608,-159.85034076439626,0.6769158840179443,-0.37788262963294983,0.20161163806915283,,,,,
1.3409810000000562,-10.200910479262145,22.869750037929734,-158.9373899265013,0.6427987813949585,-0.18388338387012482,0.12964105606079102,,,,,
1.3504780000000665,-10.164983436893047,21.149244858789764,-157.308095924577,0.6983790397644043,0.2845538854598999,0.37366151809692383,,,,,
1.3599810000000616,-10.665607011423846,19.85454799463965,-155.76737841820628,0.9607201814651489,0.5856236815452576,0.4588431119918823,,,,,
1.369307000000049,-11.760890932002074,18.849652325045223,-154.90719433112136,1.4750995635986328,0.5241873264312744,-0.02964770793914795,,,,,
1.3788359999999784,-12.691759790310636,17.863662019654186,-154.99351279582407,2.1195015907287598,0.8205325603485107,0.25184422731399536,,,,,
1.388339999999971,-13.94611609875685,16.73246310998955,-155.88375586639987,2.662808418273926,0.9661967754364014,0.2838844060897827,,,,,
1.3978459999999586,-15.22166505436452,15.452483629716626,-157.12757873269376,2.898986339569092,0.7652168273925781,-0.18032455444335938,,,,,
1.4073489999999538,-15.597822608826448,14.18860190373842,-158.03856874605316,2.7097678184509277,0.796998918056488,0.06284201145172119,,,,,
1.4168700000000172,-15.430196786375786,13.463573199876281,-158.06695313293739,2.0935676097869873,0.6445217728614807,0.123332679271698,,,,,
1.4263740000000098,-14.703012894884946,13.836171423270633,-157.1199321287592,1.0911974906921387,0.4277302622795105,-0.1160506010055542,,,,,
1.4360860000000457,-13.385303483991082,15.390464766041731,-155.20205429411362,-0.14181020855903625,0.4061678349971771,-0.19947612285614014,,,,,
1.445581000000061,-11.86881295098315,17.79539056143808,-152.77184310149048,-1.269817590713501,0.27970999479293823,-0.4917230010032654,,,,,
1.4549010000000635,-10.018201350012971,20.732068386852184,-150.4726942525642,-2.4245519638061523,0.11746519058942795,-1.0494062900543213,,,,,
1.4644500000000562,-7.6220773939082305,23.55183864753858,-148.83183369433982,-3.623812437057495,0.16781730949878693,-1.1331268548965454,,,,,
1.4739379999999755,-5.260778800113895,25.598805213079526,-148.62645997113944,-4.66977071762085,-0.0712004005908966,-0.8065649271011353,,,,,
1.4838049999999612,-3.9078567357191036,27.03479421059853,-150.63339027071783,-4.7397589683532715,-0.26180896162986755,-0.1976516842842102,,,,,
1.493135000000052,-3.576406920751887,27.581868140541324,-154.17524335914038,-3.577634334564209,-0.6625091433525085,-0.049158453941345215,,,,,
1.5026540000000068,-3.2595846492554332,27.079187977365667,-157.55145174020592,-1.9938243627548218,-1.1280922889709473,-0.5151302218437195,,,,,
1.5121619999999893,-2.0681926215664688,26.036605973732257,-159.63143170764246,-0.8394052982330322,-1.1143442392349243,-0.2523255944252014,,,,,
1.5216629999999896,-0.5265247370236277,24.3320383706784,-160.01818375842922,-0.11361441016197205,-0.9337030649185181,-0.23066991567611694,,,,,
1.5310220000000072,0.8476578564110545,21.81010641469536,-158.92719324845297,0.409003347158432,-0.9111799001693726,-0.350372850894928,,,,,
1.5407109999999875,2.103788480399776,19.002648946091416,-157.07101521202608,0.6441241502761841,-0.5298188924789429,0,,,,,
1.5502239999999574,2.5521641542828326,16.271268772833295,-155.21892613634472,0.6703866720199585,-0.19723954796791077,0,,,,,
1.5595369999999775,2.1309317621488604,13.639225651413087,-154.01048733291844,1.1110349893569946,0.028489187359809875,-0.2146672010421753,,,,,
1.5690409999999702,1.1117680972093198,11.402997722910257,-153.69320564160583,1.7756167650222778,0.3320769667625427,-0.09358274936676025,,,,,
1.5785560000000487,-0.7268184987237283,9.591784419512681,-154.18671759007097,2.4538114070892334,0.46148043870925903,-0.2668432593345642,,,,,
1.5880750000000035,-2.7830458857336664,7.764910275930401,-155.09142803967293,3.176220417022705,0.4397781491279602,-0.7351487278938293,,,,,
1.5975730000000112,-4.385029734930148,5.753502124772496,-155.93300600947802,3.5661282539367676,1.0419032573699951,0,,,,,
1.6070859999999811,-6.4353518842098065,3.729322655953575,-156.55810631265268,3.6177501678466797,0.7475792765617371,-0.05949735641479492,,,,,
1.6165859999999839,-7.81019332545457,2.3014796130831674,-156.5866420283638,2.884018898010254,0.6292890310287476,-0.15664368867874146,,,,,
1.6262870000000476,-8.358984639181571,1.9688733660126454,-156.08820288622573,1.81632399559021,1.0565333366394043,0.6013784408569336,,,,,
1.6358000000000175,-9.198343735486091,3.4356397731484023,-155.50419028395947,0.4884531795978546,0.9427236914634705,0.1185193657875061,,,,,
1.6546469999999545,-9.90184653919349,11.324979963118954,-155.88078195974455,-1.7859236001968384,0.7207084894180298,-0.9124163389205933,,,,,
1.6641479999999547,-9.955762040205837,16.492182512847126,-157.16907046945437,-2.5984385013580322,0.23669564723968506,-1.9903311729431152,,,,,
1.673669000000018,-9.13077099548907,21.210514167883492,-159.04958277758243,-4.027878761291504,-0.2918548583984375,-2.744175434112549,,,,,
1.6831730000000107,-6.725501426722142,23.802751343272647,-161.28461774018098,-5.450041770935059,-0.31389427185058594,-0.5270754098892212,,,,,
1.692845000000034,-4.235958198168035,24.47932829852259,-164.04929118621274,-5.503915309906006,-1.2564138174057007,0.21375524997711182,,,,,
1.702382000000057,-0.6046799224928485,24.461945986245063,-166.9266647320757,-4.684595584869385,-1.174517035484314,0.3307487964630127,,,,,
1.7118789999999535,3.4860769955978252,23.508095048356637,-168.80810201913386,-2.49967360496521,-1.5132230520248413,0.058191776275634766,,,,,
1.7212170000000242,8.275418266696391,21.84468708424642,-168.75648797512636,-0.6084039807319641,-1.7673015594482422,-0.21246540546417236,,,,,
1.7307270000000017,14.337215949643713,19.402030706094227,-166.42005118558495,0.1888214498758316,-1.1912394762039185,-0.07600229978561401,,,,,
1.7404310000000578,19.85100825368814,15.581300107722786,-162.79560209483915,1.0487066507339478,-0.7187755107879639,0.296610951423645,,,,,
1.7497429999999667,23.66263973977218,11.00119033335995,-158.82131065356367,1.6030542850494385,-0.80206298828125,-0.17445528507232666,,,,,
1.7592650000000276,26.37031386952251,6.557283616088629,-155.196234893824,2.1519582271575928,-0.6090539693832397,-0.14127302169799805,,,,,
1.7687700000000177,27.576171922197595,2.7360320735180794,-152.60613052738023,2.8201117515563965,-0.32935404777526855,-0.10777842998504639,,,,,
1.7782829999999876,27.065209391719122,-0.1789497147147523,-151.80362796667598,3.674929618835449,-0.3709961175918579,-0.5262230634689331,,,,,
1.7877869999999803,26.074474367998164,-1.978245504060741,-153.1328098231047,4.253255844116211,0.10980403423309326,0.5186883807182312,,,,,
1.7973070000000462,24.052411887490937,-2.594499099814225,-155.76822428514294,4.093414306640625,0.04801046848297119,0.43432849645614624,,,,,
1.8069920000000366,21.880779031964174,-2.201118519243895,-158.38749715173066,3.3487610816955566,0.25554215908050537,0.8677321672439575,,,,,
1.8164140000000089,18.555204123403637,-1.0245306855448186,-160.13974093665146,2.394284963607788,1.016201376914978,1.451002836227417,,,,,
1.8260340000000497,13.48566110768289,1.3965574590501806,-160.89524479243963,0.9401292204856873,0.653817355632782,0,,,,,
1.835360000000037,8.903970415821123,5.242056680361409,-160.80981288532294,-0.5065861344337463,0.500607967376709,-0.8566598296165466,,,,,
1.8448660000000245,5.580977155395303,10.056918550491519,-160.26145031588132,-2.107569456100464,0.6751850247383118,-1.7143657207489014,,,,,
1.8543650000000298,3.435830892379366,14.960110707945628,-159.7415752471638,-3.7744193077087402,0.2992591857910156,-3.0446383953094482,,,,,
1.8638859999999795,3.3191941520456893,19.237000875085563,-159.6520875470152,-5.289015769958496,0.2563815712928772,-1.944809913635254,,,,,
1.8733949999999595,4.081794198898175,22.41253263228131,-160.4507107921637,-5.666849613189697,-0.3450014591217041,-1.0356544256210327,,,,,
1.883081000000061,5.689008563470344,24.31992466044883,-161.96230247615196,-4.164451599121094,-0.42737889289855957,0.5210736989974976,,,,,
1.8924110000000383,6.8527773843100155,24.887850806346428,-163.2208311132112,-2.027994155883789,-1.0321199893951416,-0.9204457998275757,,,,,
1.9019369999999753,9.590843858043007,23.636705467621844,-163.02283533032036,-0.09567821025848389,-1.5765129327774048,-1.7775899171829224,,,,,
1.911450000000059,14.23317080061655,20.765734986974604,-161.20623738548915,0.8446217179298401,-0.7425082325935364,-0.030666112899780273,,,,,
1.9209319999999934,17.580960909673674,16.79749864945906,-158.43700044999,1.2443041801452637,-1.1322110891342163,-0.3853960633277893,,,,,
1.9304469999999583,20.7668898817544,12.171572925315512,-155.3391433683961,1.3898214101791382,-0.8361417055130005,0,,,,,
1.9401450000000295,22.819196105064005,7.60774624992154,-152.77618474920382,1.3610669374465942,-0.3923364579677582,0.667672336101532,,,,,
1.9494789999999966,23.089972986334793,4.078237680066362,-151.32728509920483,1.6242519617080688,-0.490129292011261,0.2996748685836792,,,,,
1.9591629999999896,22.607382503776424,2.095879289408828,-151.25656465086186,1.8773454427719116,0,0.8429507613182068,,,,,
1.9686790000000656,20.6034645314161,1.4849695002217231,-152.82899335205602,2.29367733001709,0.2866722345352173,0.9673606753349304,,,,,
1.9781840000000557,17.160515460930156,1.9159870121465004,-155.85950390694518,2.604008436203003,0.3753366768360138,0.8590391874313354,,,,,
1.9876900000000433,13.202505783384339,3.076014398273951,-159.67333198607224,2.253620147705078,0.6806067824363708,0.8083584904670715,,,,,
1.9972050000000081,8.679680082907906,4.672223334192543,-163.7344956578272,1.456235408782959,1.0901782512664795,0.8535517454147339,,,,,
2.006723999999963,3.454721284860252,6.89356431868963,-167.5125679842295,0.24995717406272888,0.7831346988677979,0.19098806381225586,,,,,
2.0160560000000487,-1.1522313001260864,10.138331808720515,-170.4454633735512,-1.2982850074768066,0.09618698060512543,-1.4867937564849854,,,,,
2.0255670000000237,-3.8040434662886886,14.22710449101566,-172.13993807745254,-3.380796432495117,-0.08373446762561798,-2.52164888381958,,,,,
2.0350819999999885,-4.7542989187882405,18.971095470417158,-172.52874289439305,-5.1809210777282715,-0.8375192880630493,-2.500002861022949,,,,,
2.0445889999999736,-2.9829479324962507,24.22089281220046,-172.05778587238495,-5.894769191741943,-0.7650184631347656,-0.7717057466506958,,,,,
2.0542729999999665,-1.1497797673729946,28.60153138588572,-171.97406957588575,-3.816410541534424,0.36216071248054504,1.9887444972991943,,,,,
2.0636140000000296,-1.192962692143751,30.799706206904332,-172.38338650752016,-1.5343490839004517,-2.359637975692749,-2.412984609603882,,,,,
2.0731100000000424,4.477620544567239,29.441207751970524,-172.3216902865432,0.2987895607948303,-0.648277759552002,-1.3156505823135376,,,,,
2.082630999999992,9.698349077646819,25.058938093741663,-172.43018861687344,2.0558595657348633,0.07442288100719452,0.6318168044090271,,,,,
2.092145999999957,11.834564696245284,20.366242814504,-172.1986051024445,1.6798869371414185,-1.4751536846160889,-1.0562217235565186,,,,,
2.10182599999996,15.017761127032486,15.247468239703219,-171.5783713226433,0.7668761014938354,-0.5152203440666199,0.6672260761260986,,,,,
2.111340000000041,15.79051420154591,9.783706128684493,-171.14553624474803,0.2803926467895508,-0.12861335277557373,0.9835853576660156,,,,,
2.120869999999968,14.681578895866323,6.018116459085674,-170.61498357515475,0.3789631128311157,-0.16446030139923096,0.07261931896209717,,,,,
2.130502999999976,13.087670225443444,4.546393516048428,-170.114033455555,0.9350560903549194,0.8217805624008179,0.4869992733001709,,,,,
2.139699000000064,9.583568242712694,4.061259956452599,-170.34019899889105,2.537248134613037,0.862711489200592,-0.37426596879959106,,,,,
2.1491979999999558,5.083123299671097,4.217028639791024,-171.5124222754348,4.601274013519287,1.8786762952804565,1.2558352947235107,,,,,
2.1587160000000267,-1.5208923018872091,4.693030105423115,-173.99048115582423,5.1866254806518555,0.8619356751441956,0.0429074764251709,,,,,
2.1682309999999916,-6.923062547447604,4.192853298085698,-177.0215224679949,4.037213325500488,0.8220806121826172,0.18531644344329834,,,,,
2.177744999999959,-11.071620527821157,3.8536816388696638,-179.6355983874968,2.0631980895996094,0.8920753598213196,0.23160165548324585,,,,,
2.187328999999977,-14.731176171123927,4.831834806424784,179.1015164218303,-0.07696553319692612,0,-1.5777666568756104,,,,,
2.1967590000000428,-16.358532651876857,7.465470873722444,-179.67628993522143,-3.0985450744628906,-0.5727583169937134,-3.2026736736297607,,,,,
2.206271000000015,-16.262694679413773,11.659241360941271,-175.57528295560596,-6.72803258895874,-1.340750813484192,-2.4516377449035645,,,,,
2.2157809999999927,-14.625044441074927,16.26505733172321,-172.2547926050516,-6.192705154418945,-1.8860383033752441,-2.231196403503418,,,,,
2.225461999999993,-11.160988153601785,20.667382893414366,-168.9988992804188,-2.786485195159912,0.17005491256713867,0.5996602773666382,,,,,
2.2347969999999577,-8.815855921848227,23.48872674444037,-164.34822688127738,-2.377739906311035,-1.5948829650878906,-3.5513062477111816,,,,,
2.244309000000044,-1.597073733552388,21.572784674033315,-159.09267869816247,-0.9968734979629517,-0.28393712639808655,-2.028903007507324,,,,,
2.2539840000000595,4.927701275105432,17.45435767009184,-156.57203378299863,-0.20628833770751953,1.240456461906433,2.0347704887390137,,,,,
2.263345999999956,5.7966719790556045,14.208927696344146,-156.65475362256768,-0.8010480999946594,-0.3812899589538574,-0.7242797613143921,,,,,
2.2730229999999665,6.569354069502526,10.64854129328447,-159.16023303408946,-0.13490913808345795,-0.11913689225912094,-0.23378509283065796,,,,,
2.28254400000003,6.059612274838155,7.282139121687074,-163.30192117481607,1.028954267501831,0.4510136842727661,1.1649844646453857,,,,,
2.291872000000012,3.482821823452114,5.325183298408151,-167.57623649224593,2.063204050064087,-0.17327715456485748,-0.1288522481918335,,,,,
2.301380999999992,1.1612958901240036,3.82564819681851,-170.73786984977144,3.111177444458008,0.3838212788105011,0.2605023980140686,,,,,
2.31088299999999,-1.9037989343283266,2.1172344084029096,-172.22425088821166,4.3845744132995605,1.1497770547866821,0.7275367975234985,,,,,
2.3204030000000557,-6.540238614269083,1.0641118839601615,-172.3954284918724,4.647758483886719,1.5355421304702759,1.3134691715240479,,,,,
2.3299110000000383,-11.552142348819064,0.7042664423242984,-172.09656783327992,3.886535882949829,0.5713271498680115,0.2777048349380493,,,,,
2.3395960000000287,-14.630885784405901,0.9536345947193442,-171.8476626574654,2.366868495941162,1.353980302810669,1.2217950820922852,,,,,
2.3491030000000137,-18.305731461708234,2.2367980999614776,-172.133791015989,0.6397978663444519,1.2635595798492432,0.4456486701965332,,,,,
2.358526999999981,-21.364139504784443,4.903338904789146,-172.83653098621608,-1.1178447008132935,0.10930442810058594,-2.2882754802703857,,,,,
2.3679550000000518,-21.66477815528673,8.65331624766711,-172.87422434064396,-3.0782413482666016,0.3831307888031006,-2.1964457035064697,,,,,
2.3774700000000166,-21.822188786704338,13.099886525234718,-171.60541361099575,-5.752580642700195,-0.8207660913467407,-2.854769706726074,,,,,
2.3869720000000143,-21.095622522005794,17.631463343970825,-170.82001022614853,-6.418261528015137,-1.6247750520706177,-1.272739052772522,,,,,
2.3966709999999694,-19.32692757722374,21.464530628724763,-170.2709956880281,-3.1912167072296143,-0.6711384654045105,0.1668633222579956,,,,,
2.405984999999987,-18.47718152556154,24.59581126146267,-167.87122666334548,-1.983583688735962,-1.107016682624817,-2.010854959487915,,,,,
2.4155080000000453,-14.59843647290828,24.809605818254973,-163.26508303695022,-0.49935421347618103,-1.0756852626800537,-2.4885430335998535,,,,,
2.4252070000000003,-8.647220798538253,22.179898837658865,-158.8636789621302,0.47477397322654724,0.9850583076477051,1.0130356550216675,,,,,
2.4347179999999753,-7.568182390071737,18.88381360393495,-156.79220884343107,0.22004050016403198,0.1918368935585022,0.19850486516952515,,,,,
2.4442320000000564,-7.71696445771483,15.16608450214969,-157.22810767136716,0.15721219778060913,-0.23065750300884247,-0.159679114818573,,,,,
2.4537330000000566,-7.858053892736269,11.017320057701868,-159.84072960909057,0.301591157913208,0.7367702126502991,1.8595690727233887,,,,,
2.463237000000049,-9.84843142529784,7.629296634458138,-163.79102479082974,0.8978403210639954,-0.0669807493686676,0.29035449028015137,,,,,
2.472754000000009,-10.81932686178423,5.4196036506626974,-167.5973690595228,1.5136505365371704,0.1511942744255066,0.6733604073524475,,,,,
2.4822739999999612,-12.111317182065397,3.9923059163663464,-170.30587662785226,2.378422498703003,0.48889344930648804,1.0598851442337036,,,,,
2.4915889999999763,-14.282744049183119,3.550219893790302,-171.5387385410425,3.298891305923462,0.14863574504852295,0.34799647331237793,,,,,
2.5010979999999563,-15.594738126023037,4.29073398122367,-171.43587749538904,3.1641786098480225,0.7033958435058594,0.7602806091308594,,,,,
2.510618000000022,-16.975160158147816,5.49275279444276,-170.63183852116234,2.3603827953338623,0.8711342215538025,0.33979350328445435,,,,,
2.5201419999999644,-18.013435042814542,7.071727472526954,-169.7427364958518,0.921118974685669,0.5572865009307861,-0.7047597765922546,,,,,
2.5296359999999822,-17.946917379365807,9.264462710246285,-169.18107513287904,-1.3257778882980347,0.5940388441085815,-1.5851647853851318,,,,,
2.5391449999999622,-17.44607160884866,11.358240300304608,-168.70905561076233,-4.746293544769287,-0.11008843779563904,-3.5411033630371094,,,,,
2.5486700000000155,-15.556676908675621,12.894396768426162,-169.15265203268527,-7.7066144943237305,0.14822128415107727,-0.03297525644302368,,,,,
2.558163000000036,-15.53734778631093,15.058866545007083,-172.31895971578322,-5.674732208251953,-3.0599727630615234,-1.7400624752044678,,,,,
2.5678669999999784,-11.776249788210784,19.318524988075264,-173.8759024618462,-2.3616225719451904,-1.294155240058899,0.47030115127563477,,,,,
2.5773890000000392,-8.190951504019962,22.808531393476983,-172.15607395141373,-0.8126705884933472,-0.48781824111938477,-0.31172996759414673,,,,,
2.586777999999981,-4.591437478401359,21.732630080471253,-168.18362246630505,1.9764223098754883,-1.6433296203613281,-2.8958380222320557,,,,,
2.5962150000000292,2.303228199759212,18.349577155370326,-164.06131890784587,3.675507068634033,0,0.10873103141784668,,,,,
2.605717000000027,6.313163828755733,14.369446401542698,-160.92290334216278,2.032801628112793,0.46115973591804504,1.1363688707351685,,,,,
2.6152289999999994,6.232600632845436,8.573538092554147,-159.63594017825315,1.6793566942214966,-0.6723207831382751,-0.29828137159347534,,,,,
2.6249290000000656,6.169505079836146,3.078749274443202,-160.48966388182998,1.3450119495391846,0.2605268061161041,2.1614294052124023,,,,,
2.634439000000043,4.367455949084636,0.24170927579004156,-162.97830851620748,0.4727029502391815,0.44178152084350586,0.771674633026123,,,,,
2.643952000000013,1.8311123214977805,-1.269516139351432,-166.71344166959688,1.1931856870651245,0.3186493515968323,0,,,,,
2.6534599999999955,-0.8036680195952224,-1.8305168915765582,-170.66972820387454,2.663491725921631,0.7033334970474243,1.0960817337036133,,,,,
2.662975999999958,-4.397375872874621,-0.5378033192931087,-173.80312173226346,3.5386078357696533,0.99052894115448,1.2751216888427734,,,,,
2.6723010000000613,-8.816253985921746,1.7962813982189576,-175.5663240794014,3.459822177886963,0.9805072546005249,0.3450539708137512,,,,,
2.681809000000044,-13.041723737902503,4.492143983580449,-175.86653359854867,2.5913591384887695,0.5021330118179321,-1.0121464729309082,,,,,
2.691381999999976,-15.4707483501004,8.035953711411242,-174.9775367421656,0.5684029459953308,0.47105520963668823,-2.428701877593994,,,,,
2.700911000000019,-16.23638571984525,11.734302157999979,-173.13693009819977,-2.3559763431549072,0.6580787301063538,-3.581228256225586,,,,,
2.710329999999999,-15.367826434698353,13.82277874366698,-170.6395837777977,-7.051309585571289,0.31614768505096436,-3.5486960411071777,,,,,
2.7198580000000447,-14.397561111092317,15.000119231207846,-171.87415818390605,-7.390067100524902,0.27261507511138916,1.1829521656036377,,,,,
2.72936100000004,-13.305577242417742,16.263479287199218,-175.2145381269036,-3.515319585800171,-2.555328845977783,-1.9820575714111328,,,,,
2.73906599999998,-9.137226147630038,19.608316466345872,-176.28477501202622,-1.9186248779296875,-0.1096390038728714,0.7290486693382263,,,,,
2.748469,-7.183691045852687,20.18632759153787,-174.6378420443354,0.7360748648643494,-1.8323224782943726,-2.4958336353302,,,,,
2.7579020000000583,-1.2151011688775286,17.485192814776926,-171.1375889771187,2.6202337741851807,-0.9552660584449768,-1.4934537410736084,,,,,
2.7769200000000183,6.436758024547989,10.344665829209776,-164.52634320995975,1.26799476146698,-0.45931553840637207,-0.42142122983932495,,,,,
2.786604000000011,7.2613803410838695,5.290395989270172,-163.58989965045635,0.9772869944572449,-0.0344860702753067,0.5609391331672668,,,,,
2.7961099999999988,6.842637690764045,1.6983196448668114,-165.11332905279824,0.9632115364074707,0.7077032923698425,1.6920626163482666,,,,,
2.805637000000047,4.617462365796991,0.441162415734491,-168.70182731564427,0.8680515885353088,0.3083527088165283,-0.09123408794403076,,,,,
2.8151430000000346,2.518753447513881,-0.1774920167175424,-173.54569675691863,1.980618953704834,0.6218844056129456,0.3944569230079651,,,,,
2.824653000000012,-0.34775969387526656,-0.0031532881339232923,-178.3673301898186,3.2778408527374268,0.9830517768859863,1.2675106525421143,,,,,
2.833990999999969,-4.425915936233649,1.5553465678038678,178.03863992399866,3.420966625213623,0.987341046333313,0.985124409198761,,,,,
2.843495999999959,-9.070690922518866,3.7393199267338986,176.3320570166922,2.8976364135742188,0.4771175980567932,-0.38927024602890015,,,,,
2.8530130000000327,-12.378944075913633,6.656118527833738,176.7646046289371,1.6185818910598755,0.1648329794406891,-1.3995462656021118,,,,,
2.8626050000000305,-13.673589493508073,10.756567453858915,178.97944659575668,-0.5227223038673401,0.5733335018157959,-2.192547559738159,,,,,
2.8720270000000028,-13.741315064966175,14.949871919504332,-177.57709861058706,-3.6689391136169434,0.08698013424873352,-4.125255107879639,,,,,
2.8815369999999803,-10.822353441284612,17.376769348472763,-174.5148280587668,-7.512453079223633,0.7208037972450256,-0.8091557621955872,,,,,
2.891044999999963,-10.206545098101822,19.052791849359277,-177.1950175201609,-6.05967903137207,-0.8856982588768005,-0.5982732176780701,,,,,
2.900741000000039,-8.558390987938244,21.241611666349538,178.3479644287622,-2.747835636138916,-1.4259347915649414,-0.31883513927459717,,,,,
2.910241000000042,-6.096970653286701,22.98195370341621,176.58972509159548,-1.1065828800201416,-1.20337975025177,-0.23057430982589722,,,,,
2.9195760000000064,-2.8808766268718475,22.158763343835044,178.146951737944,1.285976529121399,-1.9083364009857178,-1.692434310913086,,,,,
2.9290869999999813,3.1871656142349116,19.90782218144976,-178.1121761808894,1.9324721097946167,-0.26387375593185425,0.06564730405807495,,,,,
2.938592999999969,6.918870727130369,16.663937074954614,-173.72132746013216,0.9739141464233398,0.13409429788589478,0.8227124810218811,,,,,
2.9483189999999695,7.8648692400876445,12.201884695182304,-170.23252451088157,0.7395914793014526,-0.33249562978744507,0.03322732448577881,,,,,
2.957808,8.174573114208833,8.263830997452455,-168.74507779465688,0.2527041733264923,0.6614161729812622,1.5200167894363403,,,,,
2.96732499999996,6.3268434347263165,6.181191216990719,-169.70378632281313,0.0911923497915268,0.6840606927871704,0.577397346496582,,,,,
2.976827999999955,3.768973322211623,5.104688474864157,-172.9221648871615,0.9159837961196899,0.4370998442173004,0.033129096031188965,,,,,
2.986350000000016,1.7484613123436956,4.522660027641502,-177.36909713298843,2.22540283203125,0.8342879414558411,0.7594093680381775,,,,,
2.995674000000008,-0.8536920890258143,4.640492520845058,178.40201177906627,3.307154893875122,1.0047736167907715,0.9605197906494141,,,,,
3.0051879999999755,-4.1826926048888415,5.156473230979815,175.53533027409972,3.545008897781372,0.6351363658905029,0.3618896007537842,,,,,
3.014693999999963,-6.814009646215701,5.901631894669065,174.75310238359486,2.946991205215454,0.23965045809745789,-0.29444432258605957,,,,,
3.024193999999966,-7.822509661919805,7.375656634931147,175.99056420458643,1.3372830152511597,0.5516237616539001,-0.28754907846450806,,,,,
3.0337140000000318,-8.117236518316485,9.591448762051662,178.56007673868174,-0.8875300884246826,0.6100417375564575,-1.2742607593536377,,,,,
3.043217000000027,-7.463404019242394,11.874257735522466,-178.25971300821897,-3.431574583053589,0.30096879601478577,-2.291752815246582,,,,,
3.052736999999979,-4.579549417358938,13.335436566423605,-176.16046880336498,-7.1210737228393555,0.5042800903320312,-1.4851949214935303,,,,,
3.0622449999999617,-2.2995377765780436,14.393394284581682,-178.0991914452969,-6.102484226226807,-0.04356885328888893,0.208071768283844,,,,,
3.071766000000025,-0.4946291220285909,16.421158276814634,178.1667371140103,-3.430203914642334,-1.3100430965423584,-0.28198760747909546,,,,,
3.081262000000038,1.9766879918221398,18.501575989975215,175.89784797533449,-1.6824089288711548,-1.3969459533691406,-0.7038835287094116,,,,,
3.090771000000018,5.078923679486289,18.52165319341696,175.90091721461417,0.6927754878997803,-1.5836479663848877,-0.6339949369430542,,,,,
3.1002770000000055,9.109920710778587,17.03312193624384,177.92895093964006,1.7345354557037354,-0.8164310455322266,-0.07922166585922241,,,,,
3.109786999999983,11.844576672546246,14.340477081560447,-178.91708907417762,1.6799756288528442,-0.5872602462768555,0,,,,,
3.1290050000000065,13.084263667410184,6.784491398954561,-173.67702252499276,1.1176813840866089,0.24199269711971283,1.2688658237457275,,,,,
3.1385179999999764,11.071483462638863,4.6317869989346026,-173.20234517191545,0.6181234121322632,0.5081919431686401,0.9253054261207581,,,,,
3.148017999999979,8.011427535915892,3.7955637675821916,-174.7196709968925,0.6199011206626892,0.548384964466095,0.4322803020477295,,,,,
3.15753200000006,5.037131433259815,3.927559148240363,-177.86601144261985,1.1555858850479126,0.7902268171310425,0.5941663384437561,,,,,
3.1670310000000654,1.9424303156185976,4.9604949488899015,178.3864142718132,1.7874821424484253,0.9722088575363159,0.7523428797721863,,,,,
3.1763779999999997,-1.5513065285580563,6.446155270922817,175.23086837594673,2.0997655391693115,0.7074445486068726,0.2628123164176941,,,,,
3.185887999999977,-4.638152666352018,8.162950229578037,173.7146340286936,2.005807638168335,0.16845300793647766,-0.704046905040741,,,,,
3.195410000000038,-5.980368884354094,10.245519377564415,174.31437065313725,1.0886585712432861,0.294170081615448,-0.981582760810852,,,,,
3.2144309999999905,-5.164481174261395,13.83083777488412,179.99678980270883,-2.1162726879119873,0.2614644467830658,-1.6094467639923096,,,,,
3.2239250000000084,-2.851989645433204,14.432667917337554,-176.95815591717167,-3.7967519760131836,0.34249788522720337,-1.226056694984436,,,,,
3.233436999999981,0.5504699976251012,14.208946787532906,-175.64341937363938,-4.749699115753174,0.3796132206916809,-0.5691378116607666,,,,,
3.2431209999999737,3.0189850181330704,14.371103269400383,-176.93937482554102,-3.982257843017578,0.6421342492103577,0.9332205653190613,,,,,
3.252462000000037,3.309507626050601,14.972056465166606,179.94528166425448,-2.091593027114868,-1.280461311340332,-1.522637963294983,,,,,
3.262140000000045,5.633604862428447,15.817222485258425,176.9458388650451,-0.5018486976623535,-0.8636307716369629,-0.11486756801605225,,,,,
3.271667999999977,7.0949463613261,16.439658418061065,174.95297075135954,0.7205460071563721,-0.5638805627822876,0.6648273468017578,,,,,
3.2809949999999617,6.897124001463987,16.144726869425828,174.45759987469302,1.5647201538085938,-1.4396523237228394,-0.9054455161094666,,,,,
3.2904989999999543,7.863788998247029,15.059312506369677,175.6401524774798,1.531327486038208,-0.6573380827903748,0.2952345013618469,,,,,
3.300194000000033,7.744609669084249,13.567573488447733,177.56431993529355,0.844834566116333,-0.2257993072271347,0.5106098055839539,,,,,
3.3096970000000283,6.66708212855375,12.056047586115895,179.3447455029835,0.02901238203048706,-0.07900524884462357,0.22457337379455566,,,,,
3.3192229999999654,5.3666223057050955,11.124107254677694,-179.82242320437797,-0.6957576274871826,0.6032922863960266,0.731869637966156,,,,,
3.3287290000000667,2.9947011021902976,11.039060115709763,179.400894881892,-0.9858677983283997,0.5589151382446289,0.06249690055847168,,,,,
3.3382550000000037,0.7960618852859975,11.51343999139382,177.17957338107743,-0.6756677627563477,0.4080043137073517,-0.10500109195709229,,,,,
3.3477490000000216,-0.8968314708589475,12.42110678471096,174.20452405444237,0,0.5967530608177185,0.6122598648071289,,,,,
3.3572699999999713,-2.748545652826364,13.745413006648398,171.45902858889178,0.6619259119033813,0.14886212348937988,-0.362865149974823,,,,,
3.3666010000000597,-3.6909119644212525,15.299187128643936,169.91546947866107,1.0827523469924927,0.06142232567071915,-0.2739136815071106,,,,,
3.3761140000000296,-3.9299454441689354,16.96921461732238,169.99802518065394,1.1154156923294067,0,-0.2623758912086487,,,,,
3.3856080000000475,-3.472925577721358,18.708081367064214,171.57573574036488,0.6365704536437988,-0.119223952293396,-0.5951695442199707,,,,,
3.39530400000001,-2.152522073306218,20.402640800984102,173.82224257149718,-0.21539601683616638,0,-0.5199609994888306,,,,,
3.4046349999999848,-0.6520824217436263,22.056446204354692,175.78480878408288,-1.0617395639419556,0,-0.7867845892906189,,,,,
3.4143269999999575,0.7910469943095189,23.927838109764956,176.55296679383622,-1.6548185348510742,0.15890087187290192,-0.4492073059082031,,,,,
3.4238390000000436,1.0914052907970855,26.299144370650666,175.5914804779665,-1.7410156726837158,-0.04637130722403526,-0.2534072995185852,,,,,
3.4333480000000236,0.21221230359584203,29.143460971424428,173.09246192402492,-1.3717780113220215,-0.46268969774246216,-0.23822790384292603,,,,,
3.4428510000000188,-1.5586871981171617,32.09785208075592,169.665040450682,-0.6914994120597839,-0.5413102507591248,0.09194135665893555,,,,,
3.452352000000019,-4.509316729162922,34.8215090087871,166.36444179889008,0.16071665287017822,-0.7715963125228882,-0.12501734495162964,,,,,
3.461716000000024,-7.7106622576340005,37.24103894699649,163.87141720221877,0.6670397520065308,-0.7732216119766235,-0.3301757574081421,,,,,
3.471385000000055,-10.612950236376772,39.266836006117614,162.73994179022702,0.6775078177452087,-0.47561898827552795,-0.2340930700302124,,,,,
3.4808980000000247,-13.167060298193913,40.84387580258424,162.89223499812607,0.305268794298172,-0.19480116665363312,-0.3280143141746521,,,,,
3.490408000000002,-15.367135820557506,42.159458626730896,163.63702039755756,-0.4017091393470764,0.2629069983959198,-0.26513737440109253,,,,,
3.4999239999999645,-17.909274656209483,43.27995266554891,164.1096154737343,-1.165442705154419,0.6956207752227783,-0.15251827239990234,,,,,
3.5094380000000456,-21.39961116854108,44.07831192832676,163.3916980295375,-1.5918710231781006,0.6055240631103516,-0.46775102615356445,,,,,
3.518937000000051,-24.72333320528223,44.618338667968004,161.20136366846555,-1.6585681438446045,0.44761043787002563,-0.4205107092857361,,,,,
3.5284560000000056,-27.511093858957373,45.15617758617963,157.69186371020575,-1.3393465280532837,0.5434662103652954,-0.06653237342834473,,,,,
3.537963999999988,-30.460086446215204,45.880735062958195,153.40940042582363,-0.7675689458847046,0.2280423641204834,-0.14652559161186218,,,,,
3.5474960000000237,-33.021611184029624,46.765369461613254,149.14075348664161,-0.23229539394378662,0,-0.1773456633090973,,,,,
3.5570109999999886,-34.650093783239654,47.607594167983166,145.59856932936304,0,-0.058792829513549805,-0.07804712653160095,,,,,
3.566506000000004,-35.767762541454694,48.26896064773246,142.8209760249633,-0.12744611501693726,-0.14116370677947998,0.13172173500061035,,,,,
3.5760080000000016,-37.12034627315168,48.82443545674648,139.93597899026219,-0.585353434085846,-0.49844470620155334,-0.4140751361846924,,,,,
3.5855080000000044,-38.34936947185246,49.09462838955055,136.20058383970587,-1.0648858547210693,-0.13374823331832886,-0.2652515172958374,,,,,
3.5950310000000627,-41.067969094808916,48.79630347470877,130.91229561074752,-1.1371170282363892,0.2633518874645233,0.15912732481956482,,,,,
3.604543000000035,-46.081497403593204,47.77810039631451,123.91491838099277,-0.8620097637176514,-0.09064978361129761,-0.6411691904067993,,,,,
3.614058,-51.5906588471044,45.86522785297455,116.05913372394731,-0.4190813899040222,0,-0.4905604124069214,,,,,
3.6235810000000583,-57.2602241004067,43.04083260137261,108.5393784139989,0.19864168763160706,-0.039002418518066406,-0.5784013867378235,,,,,
3.6328959999999597,-62.398621089454366,39.757250135457404,102.07891275403152,0.7631741166114807,-0.32309776544570923,-1.0971159934997559,,,,,
3.6424160000000256,-66.32147048565285,36.60151063781766,96.72560125684261,1.0365511178970337,-0.1405395269393921,-0.9330644607543945,,,,,
3.6519289999999955,-69.85452501356085,33.757096588740204,92.12683005825654,1.1084203720092773,0.14464569091796875,-0.6205495595932007,,,,,
3.661422000000016,-73.66776688094586,31.186884485887607,88.04209236347108,1.2706191539764404,-0.031607091426849365,-0.4591227173805237,,,,,
3.670959000000039,-77.31658380409368,28.903501649693403,83.74282481335791,1.2504842281341553,0.0871322751045227,0.18386009335517883,,,,,
3.6804449999999633,-81.00800182996052,26.69527037798949,79.34038269714553,0.898182213306427,0.37410473823547363,0.24497784674167633,,,,,
3.689982999999984,-84.60829687466835,24.463457680176226,76.01406036431351,0.8744814395904541,0.4102923274040222,0.4850117266178131,,,,,
3.6995020000000522,-87.7596353075659,22.603767446069114,73.78568870387426,1.126269817352295,0.45289745926856995,0.25213900208473206,,,,,
3.7090319999999792,-90.4174904803579,21.564308648959194,71.93816969456269,1.1011457443237305,0.4406023919582367,0.2447344958782196,,,,,
3.7185060000000476,-92.10063700321709,21.56558150297309,71.0396086516244,0.9401264190673828,0.5214595794677734,-0.24719075858592987,,,,,
3.728020000000015,-92.54942668254343,22.54807227396929,71.42828466278766,0.6934913992881775,0.5422806739807129,-0.7113652229309082,,,,,
3.737527,-91.48574823163906,24.065742422722575,72.51299728344927,0.027810752391815186,0.5880351662635803,-1.0320597887039185,,,,,
3.7470670000000155,-89.27200786208202,25.38139974194298,73.5856185524331,-0.6957544088363647,0.8395194411277771,-0.20222528278827667,,,,,
3.7567229999999654,-87.20759842214576,25.833094001993906,74.1648494705579,-1.2798497676849365,0.7316899299621582,-0.4183212220668793,,,,,
3.766232000000059,-85.2791816772102,25.13255184620103,74.23969424504782,-1.2652783393859863,0.5293028950691223,-0.2061995267868042,,,,,
3.7757380000000467,-83.60226070756335,23.391140033683648,73.68592824830877,-0.6405589580535889,0.28812944889068604,-0.277397483587265,,,,,
3.7852530000000115,-82.08846316492628,21.10536772473874,72.61558808082472,0.09840109944343567,0.13689398765563965,-0.3738149404525757,,,,,
3.7947729999999638,-80.7350359276666,18.834513249440967,71.55071379656316,0.6398821473121643,0.09967929124832153,-0.5322365164756775,,,,,
3.804104000000052,-79.5656615917481,17.040029576006507,71.0261951155534,0.9155431389808655,-0.1356583833694458,-1.203039526939392,,,,,
3.813588999999979,-78.16478157787682,16.027983598429632,70.9124961563825,0.7009527087211609,-0.09251827001571655,-1.2521480321884155,,,,,
3.8232810000000654,-76.89879755139671,15.664397537518862,70.71444721841691,-0.03740224242210388,0.11908531188964844,-1.0119609832763672,,,,,
3.8328030000000126,-76.12715126337625,15.358171158372272,70.09237106534033,-0.7684575915336609,0.193348228931427,-1.070547342300415,,,,,
3.8421319999999923,-75.47847207060093,14.430023475043152,68.7509467907582,-0.8788005113601685,0.18593651056289673,-1.3186182975769043,,,,,
3.8516479999999547,-74.23423572875438,12.592706727855015,66.07631529101778,0.09868476539850235,-0.1153603196144104,-1.3990402221679688,,,,,
3.861154000000056,-71.19277808786408,10.235170259202324,61.861605794187675,1.7148287296295166,-0.44262295961380005,-0.5088320970535278,,,,,
3.870657000000051,-65.60705070260525,8.013789024957257,57.785479451166594,3.473571538925171,-0.6501166224479675,-0.35538777709007263,,,,,
3.8801770000000033,-58.51802538080791,6.6170985869630385,56.38154449018725,4.0496087074279785,-0.04961550235748291,2.0396170616149902,,,,,
3.889682999999991,-52.26774413559666,7.151796758227141,56.77832304931982,2.304279327392578,-1.0194101333618164,-0.2346973717212677,,,,,
3.8993920000000344,-44.878620299486236,9.453168128762922,58.63504844744056,-0.4975605905056,0.041626691818237305,1.243795394897461,,,,,
3.9086979999999585,-39.92300889593888,11.796932808048687,61.72924388726019,-2.9214727878570557,0.49277567863464355,2.8402111530303955,,,,,
3.9183960000000297,-37.966900045148726,14.138908790576991,64.0751082422718,-3.9993653297424316,0.5936160683631897,1.7415944337844849,,,,,
3.927909999999997,-39.03785188788428,17.129360458208875,63.72210674902862,-3.5845210552215576,1.5353987216949463,1.797515869140625,,,,,
3.9374179999999797,-42.64673406012681,19.371826772133705,61.80850817322568,-2.3695273399353027,1.1360951662063599,1.4194577932357788,,,,,
3.946745999999962,-47.306590149546054,19.92721534939424,59.99114509130783,-0.7997649908065796,1.9802155494689941,2.033505916595459,,,,,
3.9562610000000404,-53.96726037929974,18.754959664293224,59.12226592887251,0.7971662282943726,1.672114610671997,0.39362287521362305,,,,,
3.965857000000028,-60.27782269334044,16.560872166222286,59.38178124882925,1.4091928005218506,1.6804397106170654,-0.7959954738616943,,,,,
3.9753670000000056,-65.80246582515807,13.781448827580606,60.683985787951876,1.6199936866760254,1.552817940711975,-2.262333393096924,,,,,
3.9847919999999704,-69.82677990174767,10.87781102754257,62.532865871801306,1.8481104373931885,0.7908157706260681,-3.9323456287384033,,,,,
3.9943020000000615,-70.92952035085074,8.476320734465808,63.67062271646961,2.188613176345825,0.3370475172996521,-4.148881435394287,,,,,
4.003827000000001,-69.13293121643824,6.967593244826652,63.59425488946422,2.400393486022949,-0.17016148567199707,-4.057068824768066,,,,,
4.013323000000014,-64.08340441157559,6.445284566642914,62.882255993274995,2.8193063735961914,-0.5518028736114502,-4.064908504486084,,,,,
4.022831999999994,-55.37429288855764,7.144811622513179,62.01454870638015,2.6984622478485107,-1.1255217790603638,-1.6945184469223022,,,,,
4.0325860000000375,-42.24886366215507,8.545578450874237,61.96206949309278,1.615433931350708,0.2906031608581543,0.533367931842804,,,,,
4.042031000000065,-28.257435546571518,9.509635541008466,63.1019439775127,0.3898645043373108,0.5732420682907104,2.1356606483459473,,,,,
4.051547000000028,-15.19076910911186,10.242772758159001,64.37795769311491,-1.110072374343872,0.47429484128952026,1.9571964740753174,,,,,
4.061046000000033,-3.4924526730705647,10.854352884119523,64.72871228407577,-2.567715883255005,0.4415038824081421,1.543936014175415,,,,,
4.07057199999997,5.957637338352939,10.976808160923607,63.32221240495934,-2.5426793098449707,0.6585509181022644,1.4621831178665161,,,,,
4.080077999999958,11.399857992458191,11.866496360050142,60.13161688726256,-1.7537190914154053,0.161397323012352,0.9561615586280823,,,,,
4.089596000000029,12.934431301974048,14.067320232107067,56.13435761178648,-1.2082425355911255,-0.34689897298812866,0,,,,,
4.099100000000021,11.343891107429785,15.727814853714634,52.23961465770561,-0.7349075675010681,-0.22758108377456665,-0.08183026313781738,,,,,
4.108618999999976,6.839771187433567,15.51605312975038,49.727431348683666,-0.1950826644897461,0.1601218283176422,0.4315091371536255,,,,,
4.118114999999989,0.3304368613553067,14.13163795029098,49.707174965574325,-0.05937664210796356,0.19692175090312958,-0.22887349128723145,,,,,
4.127642000000037,-5.85622257928159,12.471707685645859,52.20833031914331,-0.2549828886985779,0.9056568145751953,-0.17434298992156982,,,,,
4.136985999999979,-11.682909084388719,11.156126290700325,56.10682638855005,-0.12742049992084503,1.2788101434707642,-0.8765170574188232,,,,,
4.146552000000042,-15.959929615506265,10.858805563500871,59.908777062640745,0.29155251383781433,0.6387450695037842,-2.7502124309539795,,,,,
4.156065000000012,-16.288789504392604,11.26806782634757,62.340599560557905,0.8500099182128906,0,-2.635817289352417,,,,,
4.165501000000063,-12.102468394709973,11.408450283807728,63.15973715753525,1.931870698928833,-0.952302098274231,-1.0015573501586914,,,,,
4.17501500000003,-3.051339278498769,10.958258892091699,62.41086631151743,3.333010673522949,-1.5434468984603882,1.1380749940872192,,,,,
4.184703000000013,9.871555486034518,10.187828520340151,60.75833123781782,3.607454538345337,-0.38704216480255127,4.039477825164795,,,,,
4.194195000000036,22.944749039643842,9.770675267925634,58.58209787885953,2.343432903289795,-0.5904843807220459,3.561765432357788,,,,,
4.203730000000064,36.04690010093371,9.44294418978504,56.372529767704535,0.6705352067947388,-0.7722454071044922,2.429945945739746,,,,,
4.213232000000062,49.111797843304124,9.247807991430138,54.33570052562859,-0.917364776134491,-0.14958596229553223,2.5833847522735596,,,,,
4.222564000000034,59.465910503429164,9.684076962122186,52.556962075917745,-2.051034450531006,-0.6650165319442749,1.1440443992614746,,,,,
4.232077000000004,67.60291465429135,10.778703216389848,50.883843592748384,-2.231074094772339,-1.1786915063858032,-0.6083732843399048,,,,,
4.241584999999986,74.46399694059072,12.52763504616604,49.70149160909335,-1.8056248426437378,-0.9519663453102112,-0.5130320191383362,,,,,
4.251101000000062,78.54720273936839,14.688199342369526,49.352994232700674,-1.3919585943222046,-1.2744208574295044,-1.2602708339691162,,,,,
4.260604000000058,80.12882782705519,16.486651869867742,49.0493519002316,-0.9329860806465149,-1.7687668800354004,-2.3998684883117676,,,,,
4.270128,80.45957789857542,17.2943231533112,48.374559629434245,-0.5805678367614746,-1.5099345445632935,-1.9142706394195557,,,,,
4.279629,79.06419125511408,16.95538509131534,47.716639382061004,-0.5713430643081665,-1.4082317352294922,-1.605650782585144,,,,,
4.28914199999997,76.60082016507157,15.469829143895943,47.28640363939597,-0.5884568691253662,-1.4974310398101807,-1.1327046155929565,,,,,
4.298671000000013,74.02570660250504,13.057195252189398,47.33379116072701,-0.23573441803455353,-1.488921880722046,0.40436965227127075,,,,,
4.308168000000023,71.64813369475486,10.18638851183429,48.23809418101347,0.37540602684020996,-1.780405879020691,2.0278425216674805,,,,,
4.317670000000021,69.94754336762298,7.205146092289722,49.84891633296488,1.2862601280212402,-2.099818706512451,4.202319145202637,,,,,
4.3271780000000035,68.62476802344707,4.452198643942213,51.90700386385173,2.754875659942627,-1.9379326105117798,6.117677688598633,,,,,
4.3366889999999785,66.54410799014434,2.541272823078981,54.38622442185651,3.6533889770507812,-1.2782044410705566,5.263776779174805,,,,,
4.3461979999999585,62.974588167272344,2.090635986067503,55.93285938998617,2.8913180828094482,-0.671029806137085,3.80087947845459,,,,,
4.355720000000019,59.584656148970296,3.197662786632779,55.10507997542658,2.1210546493530273,-0.7860885262489319,1.8533116579055786,,,,,
4.365409,57.24922266019322,5.67214856646502,52.86887667365808,0.5317944288253784,0.693723738193512,1.660353422164917,,,,,
4.374914999999987,53.51271912634509,8.796086939083422,49.87763007295403,-1.0552111864089966,0.3042117953300476,-0.799490213394165,,,,,
4.384241999999972,50.214726342703194,11.334452629740362,46.24004464122799,-1.6435086727142334,0,-0.8237016797065735,,,,,
4.393948000000023,47.08371031489518,13.250860155785551,43.574992759293835,-1.9138436317443848,0.09553349018096924,-0.44309407472610474,,,,,
4.403458999999998,42.658197912232396,14.465709411863026,42.968328607318064,-1.911536693572998,0.22862035036087036,-0.2923777401447296,,,,,
4.412952000000018,36.61018467766979,14.568404938184813,44.52433921962937,-1.4313157796859741,0.3744394779205322,-0.49124372005462646,,,,,
4.4224779999999555,29.610251213932468,13.957741500943653,47.78057589417471,-0.8824079036712646,1.200749158859253,0.27677470445632935,,,,,
4.431984000000057,20.87036374236105,13.630563936777127,51.81328504241924,-0.6410312652587891,2.2691352367401123,1.1780705451965332,,,,,
4.4413130000000365,9.430686625603707,13.86787473362604,55.284960459433954,-0.7907239198684692,2.709716558456421,1.189558744430542,,,,,
4.450825000000009,-3.676459415431971,14.142569812169016,56.79143298338238,-1.0300673246383667,2.7603931427001953,0.7574528455734253,,,,,
4.4601599999999735,-17.23471032657639,13.58026380544756,55.89419454236403,-1.0927975177764893,2.5918827056884766,-0.4422011971473694,,,,,
4.4697459999999865,-29.47573198748243,11.252674941264791,53.40366453176676,-0.6820857524871826,1.7423036098480225,-2.6701226234436035,,,,,
4.479435999999964,-37.85221833713127,7.452404035834126,50.739803064447955,0.7291008234024048,0.6455345153808594,-4.50474214553833,,,,,
4.488877000000002,-40.84540263375596,4.338788484876686,48.12504765648622,2.9971442222595215,-0.19109761714935303,-4.05542516708374,,,,,
4.498373000000015,-38.28236301626195,4.502810327010841,45.02737109088115,5.351917266845703,-1.4073190689086914,-2.8688294887542725,,,,,
4.507885999999985,-28.541597233873887,7.765514603880253,43.96199242180058,6.53977108001709,-0.8376593589782715,-0.3375089764595032,,,,,
4.517405000000053,-14.90344544707014,10.858235668945234,47.9244312038638,5.49240255355835,0.11814603209495544,2.1837615966796875,,,,,
4.527090000000044,-0.20650388882123372,11.912780205197025,54.835980366024046,1.6071962118148804,0.15041811764240265,0.9533365368843079,,,,,
4.536598000000026,16.063297908776118,8.755741531461975,60.68746018345444,-1.2886838912963867,1.3944847583770752,1.7072607278823853,,,,,
4.546108000000004,30.05326288444117,3.7307695278441053,62.174209404392286,-3.3921005725860596,2.408777952194214,3.905761480331421,,,,,
4.555440999999973,39.334874802278435,2.199838104023652,60.20632922822159,-4.670775413513184,1.0018846988677979,0.5661168098449707,,,,,
4.564958000000047,47.877100230826116,5.846183218029547,55.69924510304263,-3.5912201404571533,0.7110030055046082,-0.4136294424533844,,,,,
4.574643000000037,54.227487986192784,13.473420501495935,50.343818295703116,-1.7107124328613281,0.6628293991088867,0.9811475276947021,,,,,
4.583876000000032,54.90238632530118,21.89543812721411,45.85798526399131,-0.06638795137405396,-1.147963285446167,-1.617781400680542,,,,,
4.593380000000025,53.273537812065754,26.93503858859642,41.97503684218977,0.9182690382003784,-1.9475462436676025,-2.986225128173828,,,,,
4.603081999999972,50.94695323082141,26.7800374786379,40.163524864166114,1.3777450323104858,-1.1071743965148926,-1.6326061487197876,,,,,
4.612585999999965,46.866720981728214,22.504733976903125,41.512738027836384,1.2095839977264404,-0.7538885474205017,-1.753612756729126,,,,,
4.622012000000041,43.09782297034222,16.152994710877902,45.31889720387708,0.3360752463340759,-0.12164038419723511,-1.3461976051330566,,,,,
4.631710999999996,39.600267680139716,9.896159084355652,49.59016501836859,-0.43259096145629883,0.49348020553588867,0,,,,,
4.641229000000067,36.379013586831945,5.70455472570549,52.55019734311476,-0.6673902273178101,-0.5765228271484375,-0.2444312572479248,,,,,
4.650730000000067,36.49047234018394,3.95304420399073,52.78931947690502,0.1717343032360077,-1.3979902267456055,2.189767360687256,,,,,
4.660237000000052,39.42439817786429,4.688426725954743,50.42582907531383,2.265133857727051,-1.374465823173523,4.97479248046875,,,,,
4.669574000000011,42.852596345937414,7.863362528709865,47.40457229085583,3.342136859893799,-1.9620542526245117,4.083520889282227,,,,,
4.679086999999981,47.08738571512638,11.399307338297318,44.804531809811245,3.25639009475708,-1.8857271671295166,3.4257447719573975,,,,,
4.6885919999999714,51.27477879865515,13.569479615098954,43.20007890251802,2.567507266998291,-1.8819692134857178,2.2173314094543457,,,,,
4.69810700000005,55.13944426440644,14.057216037560789,43.25104742726783,1.131546139717102,-1.9683387279510498,0.7965649962425232,,,,,
4.707634999999982,58.66973793490393,12.954868508025527,44.410574148221485,-0.4109603762626648,-1.4609127044677734,0.12551993131637573,,,,,
4.717129,60.652723858811385,11.067535798492514,45.74293827170951,-1.4177472591400146,-0.8968536257743835,-0.10734876990318298,,,,,
4.726627000000008,60.8771334843823,9.841099079057384,47.14705417817216,-1.9353587627410889,-0.43755286931991577,-0.8337374925613403,,,,,
4.736145999999962,59.71964345822152,10.222714532763092,48.403247681780236,-2.1066694259643555,0.2987145185470581,-0.7082059383392334,,,,,
4.745842000000039,56.124423723984826,12.223385807169617,48.803158612948444,-1.7576251029968262,0.624072790145874,-0.9890705347061157,,,,,
4.755355000000009,50.666172230675684,15.016330933907375,48.23544973641849,-1.1216773986816406,1.043210506439209,-0.8086800575256348,,,,,
4.764673000000016,42.11685547628153,17.492359972235132,47.54059974067196,-0.575558066368103,1.6339986324310303,0.025306284427642822,,,,,
4.7740230000000565,30.33292083919052,18.409405678605633,46.79098899989696,-0.2033442258834839,0.6969931125640869,-1.1589571237564087,,,,,
4.7836979999999585,19.13956565930676,17.269710074672922,46.40915809258048,0,0.9959253668785095,-0.09331482648849487,,,,,
4.793221000000017,7.892589670228019,15.046056842516288,46.87867084238566,0,1.5415881872177124,0.2374137043952942,,,,,
4.80262300000004,-2.950204313548959,12.866992215115602,47.985818395641196,0.10677513480186462,0.5633581280708313,-1.9026942253112793,,,,,
4.81232399999999,-9.679812468792624,11.205727997566273,48.68965411906044,0.535645604133606,-0.059866517782211304,-2.7881174087524414,,,,,
4.821745999999962,-11.447707158588614,10.23052097983541,48.331284552141575,1.5712769031524658,-0.4025312066078186,-1.3253262042999268,,,,,
4.831255000000056,-8.43583696072259,10.266868021924774,46.978768574946606,2.928053617477417,-1.3170619010925293,-0.06755894422531128,,,,,
4.840775000000008,-0.23118562978417215,11.113758708751094,45.50305613172581,3.8624730110168457,-1.3822005987167358,1.9538768529891968,,,,,
4.850444000000039,11.281556270528494,12.139981400021929,45.113727711513185,3.6277384757995605,-0.9444289803504944,2.649367094039917,,,,,
4.859956000000011,24.627170528733302,12.828650538577055,46.20268105724474,2.0200579166412354,-0.609932541847229,2.1387479305267334,,,,,
4.869480000000067,38.49962061936188,12.102991927767206,47.967345173270296,0.18695072829723358,-0.2912158668041229,1.8360172510147095,,,,,
4.8789769999999635,51.36348008933263,10.269940902770992,49.217372298371515,-1.3126133680343628,-0.06392669677734375,2.1522626876831055,,,,,
4.888494000000037,62.009519492052384,8.918861133093754,49.57323886305338,-2.2574758529663086,-0.21029531955718994,1.3505771160125732,,,,,
4.897835999999984,70.2445473276908,9.255931295903139,49.13322925067698,-2.2587368488311768,-0.6198012828826904,0.3861452341079712,,,,,
4.907332999999994,76.70020224005606,11.642110773673535,48.54274957104316,-1.568701148033142,-0.8633120656013489,-0.7394067645072937,,,,,
4.916845999999964,81.33674536042267,15.518730733808257,48.26536880281517,-0.8316335678100586,-0.8159871697425842,-0.8695237636566162,,,,,
4.926355000000058,83.08973984813937,19.742243813744768,47.6408267492037,-0.28796496987342834,-1.4611787796020508,-2.4626588821411133,,,,,
4.935873000000015,83.43625352416522,22.98535939821987,46.10908165719043,0.05222821235656738,-1.556480884552002,-2.6422791481018066,,,,,
4.945389999999975,82.32805958483863,24.42478635240992,44.07975574830283,-0.05967748165130615,-1.2870863676071167,-2.0869061946868896,,,,,
4.954911000000038,79.33067015669509,23.77643251785901,42.040051461088076,-0.32255762815475464,-1.3519318103790283,-2.04158091545105,,,,,
4.964398999999958,75.75351692309471,21.241974510348925,40.43264486724989,-0.307829350233078,-1.2189911603927612,-1.1226251125335693,,,,,
4.973916000000031,72.2368963437261,17.621742336564594,39.765677150182604,-0.06978696584701538,-1.0400924682617188,0.22919118404388428,,,,,
4.983425000000011,69.00272119986239,13.837887333981627,39.99778217761709,0.3911912441253662,-1.3123178482055664,1.212648868560791,,,,,
4.992934999999989,66.84286442432956,10.464247654199525,40.631229122585296,1.2793220281600952,-1.4927642345428467,3.262707471847534,,,,,
5.002454000000057,65.32509298022059,8.058094680351921,41.738718842752824,2.453686237335205,-1.2477928400039673,5.826108455657959,,,,,
5.011971000000017,63.320210734958906,6.9996933437468725,43.43788129941292,2.9348220825195312,-1.438711404800415,4.435908794403076,,,,,
5.021465000000035,61.68002566756991,6.918491722124998,44.54741223433832,2.6154818534851074,-0.8499207496643066,3.907717227935791,,,,,
5.03098,59.47797904431698,7.618862231972077,44.54812218607855,2.074227809906006,-0.5041260719299316,2.934864044189453,,,,,
5.04066899999998,57.614965092066655,9.147524633072567,43.843497222991864,0.9775177240371704,-0.4947699308395386,0.8310384154319763,,,,,
5.050192000000038,56.920477670105264,11.076806257426059,42.50472851587579,-0.14537227153778076,0.08469128608703613,0.2742181420326233,,,,,
5.059696000000031,55.920115306405634,12.977613736039523,40.907135310855104,-0.785601019859314,0.09575033187866211,-0.07754695415496826,,,,,
5.069197000000031,54.87262817075349,14.717311547545462,39.81158709164567,-1.1767466068267822,0.06960415840148926,-0.7075530290603638,,,,,
5.078714999999988,53.7054346377246,16.14226859319193,39.714531069167826,-1.3940646648406982,0.4958733916282654,-0.553480863571167,,,,,
5.088227999999958,50.83653511284574,17.098798305852867,40.27132775973984,-1.2721551656723022,0.5504695177078247,-0.7917947173118591,,,,,
5.097557000000052,46.47216247975064,17.651530855121376,41.18490686703422,-1.0530990362167358,0.4025039076805115,-1.3537520170211792,,,,,
5.107254000000012,41.31523957706852,17.991023242739946,42.208269821103904,-1.0201241970062256,1.067678451538086,-0.550110399723053,,,,,
5.116761999999994,33.78165921805799,18.2640027196908,43.18056082207853,-1.0434075593948364,1.537510871887207,-0.2508612871170044,,,,,
5.126084999999989,24.000967274258365,18.411407410996883,43.649434924561994,-1.0707310438156128,1.462027907371521,-0.38460659980773926,,,,,
5.135597999999959,13.39251701362429,18.264296888174766,43.14848090583073,-1.0119267702102661,1.6073994636535645,-0.11599725484848022,,,,,
5.144929000000047,2.6249984079313387,17.579985851361194,41.751933382796125,-0.68292236328125,1.4183452129364014,-0.5998587012290955,,,,,
5.154447000000005,-6.73844660857022,16.258897608712854,39.9007666577157,0.05920395255088806,0.772287130355835,-1.289264440536499,,,,,
5.164222999999993,-12.745271866748462,14.878340561504354,37.90532076621663,1.2781732082366943,0,-1.9097564220428467,,,,,
5.173640999999975,-14.234618827863438,14.398051815265998,36.01666242739395,2.6920864582061768,-0.48115548491477966,-1.5033421516418457,,,,,
5.183161000000041,-10.867898928894876,15.327807561358306,34.790618124527136,4.202774524688721,-1.490359902381897,-0.8845571279525757,,,,,
5.192667000000029,-1.4465158219584298,16.726541741097495,35.68470944379899,4.928982257843018,-1.3126763105392456,1.7623302936553955,,,,,
5.202177000000006,11.209497138245283,17.142131551095847,39.11009852140212,3.8401241302490234,-0.6834562420845032,2.9677605628967285,,,,,
5.211869999999976,25.38887055567497,16.03707847147829,43.30544167522323,1.3664933443069458,-0.5678673982620239,1.7023005485534668,,,,,
5.221372999999971,40.44139030601165,13.091330524675854,45.931435564530865,-0.5208775997161865,0.5157334208488464,2.951395273208618,,,,,
5.2308779999999615,53.189396335812454,10.689605116562586,46.26203236648273,-1.9073514938354492,0.39083772897720337,3.1204676628112793,,,,,
5.240391000000045,63.63315035966525,11.089796305008251,45.36272115673388,-2.6078414916992188,-0.27132290601730347,1.4108848571777344,,,,,
5.249910999999997,73.20081817442166,14.53095057168133,44.1690045326173,-1.952889323234558,-0.3471783995628357,0.6330232620239258,,,,,
5.25941899999998,81.258614495917,20.127169498185005,44.0083336120263,-0.8401588201522827,-0.4768947660923004,0.6308413147926331,,,,,
5.268745999999965,86.66014638467216,26.040934016741126,45.15429698591107,0,-1.5189924240112305,-1.1917554140090942,,,,,
5.278265000000033,90.57175476969013,30.33308656350317,46.20571595019295,0.6573169231414795,-2.036871910095215,-2.305183172225952,,,,,
5.2877790000000005,93.00521745103482,31.94586367784054,46.09973689572741,0.8671174645423889,-1.961577296257019,-2.1334190368652344,,,,,
5.297288999999978,93.52859529503563,30.752548457060715,45.08769363966978,0.36594855785369873,-1.823859691619873,-2.168692111968994,,,,,
5.306793999999968,92.73329530247712,27.482067071817205,43.232594396762806,-0.4349954426288605,-1.3272438049316406,-1.645641565322876,,,,,
5.316305000000057,90.87200857381862,23.431460979680637,40.97694103059455,-0.932712733745575,-0.9404153227806091,-0.545472264289856,,,,,
5.325807000000054,88.5066978193242,19.85070298426002,39.32730754495184,-1.0008583068847656,-0.9755406379699707,0.14049369096755981,,,,,
5.3353290000000015,86.22718227083261,17.53670931144363,38.41420872718747,-0.4550154209136963,-1.0909945964813232,1.644586205482483,,,,,
5.344834999999989,83.7112200576588,16.613804033754466,37.93782920238347,0.7205350399017334,-1.2292076349258423,3.350861072540283,,,,,
5.3543469999999616,80.60167026694546,16.610098285265995,37.79073715094105,2.1244490146636963,-1.1738722324371338,4.874598026275635,,,,,
5.363859000000048,76.70356928022436,16.88659686349126,38.172141639815095,3.0269947052001953,-0.8479247689247131,5.121356010437012,,,,,
5.373377000000005,72.12237378297952,17.023296551988338,38.90300343666055,3.0341591835021973,-0.6635450720787048,3.810290813446045,,,,,
5.38287200000002,68.07765334519395,16.92153395807236,39.46607717010931,2.275570869445801,-0.11065840721130371,2.9716551303863525,,,,,
5.392565999999988,64.54559802801084,16.948642204210774,39.89667913269869,1.1258078813552856,0.48870784044265747,2.0297577381134033,,,,,
5.402078999999958,60.94532283177007,17.565894338843414,40.27952279913019,0.030542612075805664,0.28035664558410645,0.6397439241409302,,,,,
5.411600000000021,58.23806605197683,18.76170578272443,40.50014466837558,-0.7540745735168457,-0.044882774353027344,-0.3556056022644043,,,,,
5.421102000000019,56.78459179776489,20.3905658422823,40.65012764157822,-1.0298219919204712,0.3895724415779114,-0.05833810567855835,,,,,
5.430619999999976,54.85756227393226,22.361899328225864,41.04641874750057,-0.9387030601501465,0.45902395248413086,-0.3646438717842102,,,,,
5.4401209999999764,52.09507322562996,24.22111215613267,41.67313039448078,-0.7375806570053101,0.27486568689346313,-0.9294136166572571,,,,,
5.449641000000042,48.67443470794977,25.459027771828804,42.50344837470098,-0.4680979549884796,0.4544934034347534,-0.9036621451377869,,,,,
5.459145000000035,43.962926170544506,25.99932703357191,43.538552489895416,-0.31758615374565125,0.8823971152305603,-0.5174560546875,,,,,
5.468651000000023,37.20817417731064,26.02306863082555,44.66925278060363,-0.511681318283081,1.1617906093597412,-0.49920332431793213,,,,,
5.478159000000005,28.461096367086185,25.581121533390718,45.97821340782446,-0.8680408596992493,1.5794057846069336,0.2542199492454529,,,,,
5.487508000000048,17.767555531071856,24.969986802827044,46.836317412320575,-1.1553679704666138,2.0145328044891357,0.950408399105072,,,,,
5.497011000000043,5.440895818024231,24.482625030729565,46.94409417904008,-1.445898175239563,2.359239339828491,1.2221410274505615,,,,,
5.506521000000021,-7.894225058432936,23.72457944175055,46.00920153261043,-1.4831193685531616,2.216933250427246,0.6669424772262573,,,,,
5.525447999999983,-30.487962273428654,20.62350832328138,41.562504486036104,-0.1617620289325714,1.361921787261963,-1.808966875076294,,,,,
5.535127999999986,-37.29852097023079,18.732322905398146,38.61139381628572,0.9905275106430054,0.8048794269561768,-3.072345733642578,,,,,
5.544628999999986,-39.78021027284297,17.10780616381439,35.52901194663808,2.5268309116363525,0.3804255723953247,-3.252816677093506,,,,,
5.554075000000012,-37.51692486367766,16.463200239372433,32.88776627110105,4.74206018447876,-0.906853199005127,-3.8609542846679688,,,,,
5.563580000000002,-28.786621963385027,17.277838451941758,32.58757226141609,5.971288681030273,-0.35231003165245056,-0.33927568793296814,,,,,
5.573090999999977,-18.182678275043397,18.60899288448104,36.069517120059665,4.8080620765686035,-0.5023627281188965,2.247654914855957,,,,,
5.582605000000058,-5.371941883347622,18.917689056777952,42.10306398731713,1.82490074634552,-1.343874454498291,-0.8550869226455688,,,,,
5.592293000000041,12.4008701755847,16.423363750418726,48.45846265767293,-0.816195011138916,1.8978254795074463,3.0173323154449463,,,,,
5.601818999999978,25.672790509868193,12.900051580857324,52.56168783426201,-3.6292779445648193,1.2270063161849976,3.874582290649414,,,,,
5.611137999999983,35.64581314796053,11.14948282896734,54.169110221297856,-4.687650680541992,-0.7164443731307983,-0.3284339904785156,,,,,
5.620826999999963,48.7894484633299,12.517173092221569,54.67290098581348,-3.741699457168579,0.6939767599105835,2.43599796295166,,,,,
5.630348000000026,60.01410489018003,17.40103800475672,56.12398260818766,-2.4095206260681152,0.3426196575164795,3.2173385620117188,,,,,
5.639670000000024,66.44361820374665,23.018999187693577,58.55742249686927,0.33385664224624634,-1.5773625373840332,0.7330605983734131,,,,,
5.6492660000000114,71.11687636239152,26.667021670866795,62.12202312803388,2.4654407501220703,-1.5544507503509521,-0.6466478109359741,,,,,
5.6587729999999965,73.04870289204322,26.88754882161273,65.71515972405123,3.2992124557495117,-1.2218904495239258,-0.8763444423675537,,,,,
5.668277999999987,72.10857772739979,23.446032452636988,67.67020087715949,3.2599284648895264,-1.3899922370910645,-2.458313465118408,,,,,
5.677719000000025,70.54750798901222,17.843350302681472,68.77120734742076,1.9656884670257568,-0.1723775863647461,-0.6317882537841797,,,,,
5.687409000000002,66.26388104649948,12.652186628752878,69.90501652593073,0,0.6097692251205444,-0.6370832920074463,,,,,
5.69673899999998,60.50949599227455,9.91782723851829,70.67628148355593,-1.693210244178772,0.13767504692077637,-1.0018913745880127,,,,,
5.706424999999967,56.248830702421635,10.41553408579194,69.91372658910694,-1.841055154800415,1.0610811710357666,1.2752737998962402,,,,,
5.715934000000061,51.211462371852754,13.840743577453171,67.07700514863134,-0.8646286129951477,0.8113876581192017,0.2761762738227844,,,,,
5.725472999999965,46.28362072647796,18.136330705943347,62.19130587964987,0.5726810097694397,-0.045337557792663574,0.10562664270401001,,,,,
5.734786999999983,43.046159281192914,21.2466096491673,56.2050788691655,1.9702295064926147,-0.37821146845817566,0.572397768497467,,,,,
5.7442949999999655,41.624118903043104,22.477630221087082,51.08756849629799,2.8449220657348633,-1.3227583169937134,1.6424901485443115,,,,,
5.753804000000059,43.71585787732426,21.80552539706479,48.82146644703206,2.5261173248291016,-1.836425542831421,2.2819437980651855,,,,,
5.763316000000032,49.02905963524268,18.833690792696512,48.947793033144364,1.6344119310379028,-1.6644465923309326,3.2945852279663086,,,,,
5.772815000000037,55.65688226192449,14.484517087975119,50.33939806936914,0.380916953086853,-1.2776082754135132,3.5610461235046387,,,,,
5.782329000000004,62.24068368374024,10.48304662628478,51.87180566211077,-1.071539282798767,-1.3136405944824219,1.7712937593460083,,,,,
5.792029999999954,69.17796348876863,8.122159873746515,52.08061418201369,-1.5111818313598633,-0.47057682275772095,2.3234941959381104,,,,,
5.801343999999972,74.41305129725923,8.806621234915735,51.63846019919374,-0.9664576053619385,-0.5170595049858093,2.2471694946289062,,,,,
5.810879,78.07471110483108,12.495649072886248,51.749232725154236,-0.36217883229255676,-1.2496654987335205,0.7254827618598938,,,,,
5.820379000000003,81.46921348635675,17.593406362673576,52.11171277048265,0.4023687541484833,-1.139884352684021,0.40886783599853516,,,,,
5.829961000000026,83.37414736303583,22.302421497748142,52.686804312290924,0.9562156200408936,-1.3735440969467163,-0.3414188027381897,,,,,
5.83939799999996,84.21266442165592,25.086458309580134,53.34063288473901,0.6103518009185791,-1.4536116123199463,-1.4852279424667358,,,,,
5.848916000000031,83.73932033779226,25.20394836799168,53.719096413324465,-0.2786339521408081,-0.9381028413772583,-1.3725254535675049,,,,,
5.858424000000014,81.53493534783526,22.961774583788337,54.106757007320304,-0.8058115243911743,-0.6747671365737915,-2.060397148132324,,,,,
5.868112999999994,78.97777036230141,19.529104729014918,55.55169553826251,-1.4719445705413818,0.6091127395629883,-1.7900588512420654,,,,,
5.877609000000007,74.05797163890915,16.576806359077835,57.96862875187742,-1.6093084812164307,1.4352750778198242,-1.0967483520507812,,,,,
5.89663900000005,58.8626470070528,15.662925846730193,62.206630025906755,-0.38244330883026123,1.4766268730163574,-0.34459149837493896,,,,,
5.90596000000005,48.401720031150425,17.48565564885722,62.14303950282072,0.3542138934135437,1.7748527526855469,-0.061622440814971924,,,,,
5.91529300000002,35.63907437985567,19.24060394315112,59.728308494904894,0.6095007658004761,1.0439887046813965,-0.8666563034057617,,,,,
5.924816999999962,23.57452725179337,19.356868529274276,55.36402318288176,0.6475298404693604,0.7991471290588379,-0.5897107124328613,,,,,
5.934514000000036,13.363842597901954,17.720959221495683,50.55458901409249,0.484036386013031,0.4601399302482605,-0.543279767036438,,,,,
5.944103000000041,6.524913501688651,15.334138646565695,46.75606026592516,0.5138453245162964,-0.7128660678863525,-1.5365891456604004,,,,,
5.953532999999993,5.246132642963444,13.71210438016171,44.68511567386188,0.9653846025466919,-1.0222171545028687,-0.8575612902641296,,,,,
5.963038999999981,8.683158930794422,13.805657499123212,44.37274528878406,1.6635922193527222,-1.7207980155944824,0.25229543447494507,,,,,
5.972552000000064,17.215270675870688,14.859926357907938,45.812770499102676,2.3417022228240967,-2.1199960708618164,2.5900163650512695,,,,,
5.982050999999956,30.684911675285075,15.016398967618851,48.30321661255681,2.80281925201416,-1.369267225265503,3.6044118404388428,,,,,
5.991741000000047,46.71988198477342,13.527086033791445,50.550415217371544,2.795659065246582,0,5.6570563316345215,,,,,
6.0105800000000045,73.8668768627732,9.414137830124242,51.341926164353644,-0.086361363530159,-0.5855896472930908,3.1250228881835938,,,,,
6.020110000000045,85.88755810497248,9.06900267229119,49.859783237340956,-1.1034491062164307,0,3.148085594177246,,,,,
6.029614000000038,95.47694769324474,11.056376917350557,49.16572325289124,-1.6253387928009033,-0.6081369519233704,1.5540591478347778,,,,,
6.039120000000025,104.2495898477098,14.829079235242473,49.96568120854051,-1.37445068359375,-0.9505437016487122,-0.11611738801002502,,,,,
6.048658000000046,113.08294178484445,19.260971427437127,53.03343000848206,-0.5972312688827515,-0.8279461860656738,0.033006489276885986,,,,,
6.058141999999975,120.84288938157431,23.145228707377242,57.227995185298425,0.13312169909477234,-1.465965747833252,-1.074866533279419,,,,,
6.067656000000056,128.183670839223,25.73624125951243,61.00937857362403,0.6025501489639282,-1.9649633169174194,-2.392836809158325,,,,,
6.077166000000034,135.6062270753812,26.863340793268893,63.0260343590461,0.7324435114860535,-1.7941200733184814,-2.2097036838531494,,,,,
6.086669000000029,142.29991350525574,26.810279450934274,62.78951015580137,0.3180362582206726,-1.743918776512146,-2.1894218921661377,,,,,
6.096374999999966,148.71062171406126,26.37942543272293,59.78042759925026,-0.4450947642326355,-1.5958867073059082,-1.7892684936523438,,,,,
6.1058799999999565,155.78756107122885,26.244378621381884,55.39653604829784,-1.244113802909851,-1.0078645944595337,-0.24439257383346558,,,,,
6.115210000000047,163.4372516545902,26.193167815672265,50.87793270795179,-2.0357203483581543,-0.4748013913631439,1.456040382385254,,,,,
6.12472200000002,171.286877589908,25.48185845037438,47.27423890747842,-2.4729294776916504,-0.19561165571212769,2.319761276245117,,,,,
6.1342200000000275,178.63872789402612,23.370641982602468,45.04047117662713,-2.078291893005371,0.16658934950828552,3.0208020210266113,,,,,
6.143817000000013,-176.57062161790768,19.383366591971008,43.94970193293436,-0.6161972880363464,0.42455461621284485,3.093104839324951,,,,,
6.153327999999988,-176.65491000532995,13.964264906437696,43.57531321818955,1.6572542190551758,0.7953933477401733,2.591822624206543,,,,,
6.162846000000059,177.19784060210125,8.351319914108396,43.872060049171324,4.67891263961792,1.9009984731674194,3.378417491912842,,,,,
6.172260000000051,164.94875182819447,4.247497588652346,45.71716498260216,5.745921611785889,3.6838431358337402,4.065321922302246,,,,,
6.181788999999981,148.8255444048966,4.921655175057311,49.76063037618665,4.564013957977295,3.3365092277526855,3.9507789611816406,,,,,
6.191290999999978,133.63061555765773,10.94484854264758,52.99006845421769,3.267388343811035,1.435154914855957,4.623695373535156,,,,,
6.200814000000037,118.69789870778108,18.749436658408563,52.83330391456138,0.2958987057209015,3.185427188873291,7.745194435119629,,,,,
6.210395000000062,99.36244637783396,25.392674343234933,46.44586429789995,-2.049532651901245,0,1.5926597118377686,,,,,
6.2197230000000445,82.3104970280761,27.698712989643234,43.57568654834214,-3.422348976135254,-0.6225925087928772,3.6413984298706055,,,,,
6.229326000000015,67.17441211849625,23.47376209617121,44.86023428464286,-2.42653489112854,1.5953582525253296,3.347337007522583,,,,,
6.238848999999959,54.2162998632024,15.927012266771278,53.88637482815746,-0.9687274098396301,2.3482985496520996,2.0880441665649414,,,,,
6.248530999999957,43.434695959979614,12.570726876599707,66.72327548074118,0.04438579082489014,3.1456079483032227,1.4343388080596924,,,,,
6.258051000000023,33.118390602013584,15.250745815503784,77.96809076124399,0.20743994414806366,3.6926612854003906,3.1946544647216797,,,,,
6.26737700000001,19.12564972279579,22.198418172880448,83.21078385088649,1.2136621475219727,5.092191219329834,5.707143306732178,,,,,
6.27689399999997,-2.9060944309652035,30.026026781188918,79.37381882520866,1.327826976776123,6.143688201904297,6.090592861175537,,,,,
6.28621899999996,-31.32201418355617,31.321297939952625,67.97065060280298,-0.816989541053772,5.930960655212402,5.859771251678467,,,,,
6.295728000000054,-56.98325419721339,22.70367962828567,58.60845739686484,-1.9694554805755615,4.575634002685547,4.84346342086792,,,,,
6.305257999999981,-76.54137859344371,11.79627939096867,57.556094739727854,-1.5807039737701416,2.4505934715270996,3.49294114112854,,,,,
6.314934999999991,-93.74113437778706,5.820741470415989,60.80139496966961,-0.6231586933135986,2.002561569213867,3.430457592010498,,,,,
6.324339000000009,-111.78705308707126,6.887830012788171,63.673847710425285,1.0165059566497803,2.343041181564331,2.483381509780884,,,,,
6.333861999999954,-130.61993556581317,12.46303177922723,61.711367787140624,2.715569019317627,3.3816654682159424,2.2952165603637695,,,,,
6.343346999999994,-151.46573370113555,16.71471916159113,53.767330384015025,3.9857239723205566,5.04007625579834,4.164117813110352,,,,,
6.352868000000058,-174.67719778345574,14.542799915659716,44.27479807021384,4.049954891204834,5.87249231338501,6.692359924316406,,,,,
6.362572999999998,162.82595237096982,6.830881152801439,40.533243171235775,3.4918742179870605,6.466404914855957,8.851134300231934,,,,,
6.372003000000063,141.24019824482357,-0.5823945072109299,45.67445351242829,2.0835890769958496,6.797692775726318,8.77114200592041,,,,,
6.381517000000031,119.21153057639944,-1.0212913423559136,56.26663236616068,0.02778562530875206,6.015143871307373,8.479744911193848,,,,,
6.391204000000016,97.76851467539167,7.361404715322006,64.19644430325152,-1.379903793334961,5.5274200439453125,7.682477951049805,,,,,
6.400614000000019,75.73910072763704,19.255320818902042,63.5637184891132,-1.7577884197235107,4.4685187339782715,6.021432399749756,,,,,
6.4101120000000265,50.321968842362914,26.55900777201121,54.475125448292786,-1.2687140703201294,2.441274642944336,5.625067710876465,,,,,
6.419626999999991,24.300117543320937,24.864089214727827,44.831813778058525,-0.4047936499118805,1.667626976966858,6.682537078857422,,,,,
6.429063000000042,1.8612538374815377,17.995788856574283,43.106107071487685,0.615486741065979,2.3546674251556396,7.039795398712158,,,,,
6.438575000000014,-18.14692535764962,13.182172301593244,49.815111576898275,1.6154237985610962,3.365004777908325,7.06593132019043,,,,,
6.448081999999999,-37.42506582752154,15.103755271201361,60.267302860971746,2.0010452270507812,4.805700778961182,7.224724292755127,,,,,
6.4574910000000045,-56.47928981899369,23.43111499747062,68.17988498147317,1.6070775985717773,5.886094570159912,7.43851375579834,,,,,
6.467003999999974,-76.50428710113519,33.265879893738145,69.17518441911324,0.32363659143447876,5.644606113433838,6.467378616333008,,,,,
6.476615000000038,-97.92033071127314,38.53149350647458,63.77974255563616,-1.3769665956497192,4.767212390899658,4.261861324310303,,,,,
6.4861230000000205,-116.63912800360353,36.730733539678745,58.71581695583456,-2.271009922027588,4.122522830963135,2.467883348464966,,,,,
6.495637999999985,-129.86225391136327,30.266835388930296,59.129471092140484,-2.0215823650360107,3.297656297683716,0.9814777374267578,,,,,
6.505167000000029,-139.02982910682823,22.91323400410354,64.16011108677331,-0.8912603855133057,2.4921107292175293,0.8441421985626221,,,,,
6.514744000000064,-147.52957857194903,17.468409552125546,70.57331389081142,0.4127306342124939,1.8408958911895752,1.410584568977356,,,,,
6.524246000000062,-157.66778557699152,15.332054494025043,75.2934510789082,1.4902982711791992,1.4030604362487793,2.040175199508667,,,,,
6.533758000000034,-170.34311669706085,15.976714443148014,76.05887615675651,2.28365159034729,1.6990151405334473,3.603151559829712,,,,,
6.543268000000012,173.68926073135455,16.977822973800016,72.3064954170198,2.719127655029297,2.4189293384552,5.487722873687744,,,,,
6.552771000000007,155.3174854576612,15.610470799723837,66.04397081369595,2.6305623054504395,2.83319091796875,6.992064952850342,,,,,
6.5622110000000475,136.95363102697647,11.301225066869819,61.431368608849496,1.7848539352416992,3.1312453746795654,7.566407680511475,,,,,
6.571726000000012,119.35237879570127,6.702114702482472,60.90104865190108,0.2788441777229309,3.152738094329834,6.281876564025879,,,,,
6.581223000000023,102.006958416642,5.495049678413779,63.18707385949235,-1.1626930236816406,3.056252956390381,5.229582786560059,,,,,
6.60024999999996,68.49124044504035,15.083048642372615,64.79029588793685,-1.697123646736145,1.9662086963653564,2.976046323776245,,,,,
6.609775000000013,51.79085742657601,20.727984016165056,60.990580552107154,-1.0953058004379272,1.4570488929748535,2.6401002407073975,,,,,
6.619277000000011,34.62112165021521,23.22964539135582,56.02157006814838,0,0.8702794909477234,2.4731173515319824,,,,,
6.628969999999981,18.776703768214272,22.693334993936492,53.54024295562357,0.8307660818099976,0.8393285870552063,2.666978359222412,,,,,
6.638473999999974,4.634736310260113,20.921223708254427,55.24589630202427,1.1948617696762085,1.5045958757400513,3.2066378593444824,,,,,
6.6480020000000195,-8.250686358339603,20.064510162763575,60.35936650697922,1.2484291791915894,2.024703025817871,3.291764974594116,,,,,
6.657505000000015,-20.01882223720059,21.44240564416312,66.05099800818995,0.6104322671890259,2.7098727226257324,3.300065040588379,,,,,
6.666844999999967,-31.33622673067219,24.262704168000933,70.17400900309325,-0.3816535770893097,3.0743026733398438,2.6270222663879395,,,,,
6.676339999999982,-42.80736895775219,26.515475989460736,71.51098052673478,-1.1473942995071411,2.9427649974823,1.4394021034240723,,,,,
6.685856000000058,-53.83051208421495,26.5274606141697,70.26249365213502,-1.4234148263931274,2.528679609298706,0.14498889446258545,,,,,
6.6953660000000355,-63.21532143294166,23.773669656842017,67.82338058137952,-1.1536657810211182,2.2414355278015137,-0.7628515958786011,,,,,
6.704952000000048,-70.5002670710586,19.145026357677803,65.65452840143199,-0.472508043050766,1.767656922340393,-1.630272626876831,,,,,
6.714388999999983,-75.5424984628649,14.425477071228388,64.11649666199132,0.3179425001144409,1.2791014909744263,-2.099350929260254,,,,,
6.723899999999958,-78.77688217930161,11.2535692955142,62.925271517813606,0.9505335092544556,1.0395232439041138,-2.318783760070801,,,,,
6.733411000000046,-80.72566508943905,10.468712415135357,61.86320467312586,1.3289307355880737,0.9857576489448547,-2.4574086666107178,,,,,
6.742917000000034,-81.34840488481774,12.00445836251342,60.83636247560424,1.347927212715149,1.124977707862854,-2.601001024246216,,,,,
6.752432999999996,-80.50143377330548,15.002485978407504,60.165165023363606,1.0189449787139893,1.3692766427993774,-2.356574535369873,,,,,
6.761941999999976,-78.347025679553,18.16995753986867,60.100917055615184,0.4375757575035095,1.5008808374404907,-1.9167087078094482,,,,,
6.771448999999961,-75.09915862029845,20.261623524012805,60.53874167913422,-0.24674198031425476,1.4927910566329956,-1.551977515220642,,,,,
6.780958000000055,-70.87692138401424,20.53277229810641,61.04440450675586,-0.7583615779876709,1.4032418727874756,-1.100769281387329,,,,,
6.790478000000007,-66.22876665445398,19.03091282866774,60.94889593430768,-0.9521439671516418,1.2411768436431885,-0.12515977025032043,,,,,
6.8001820000000635,-61.84113363742229,16.56483603930085,59.787318552191735,-0.7376965880393982,0.4267013967037201,-0.15844160318374634,,,,,
6.809676999999965,-56.932376283695056,14.346439843847056,57.813946837575266,-0.29949501156806946,-0.05340033769607544,0.268322229385376,,,,,
6.819177999999965,-51.70123323191266,13.278887305743632,55.703544499615155,0.1872289776802063,-0.40302932262420654,0.14704900979995728,,,,,
6.828698000000031,-46.02600143970486,13.660886094876094,54.40287766405752,0.5850954055786133,-0.28574520349502563,0.4460921883583069,,,,,
6.838210000000004,-40.42385042621064,15.167268577058557,54.492005795906984,0.7596688270568848,-0.23403137922286987,0.3398290276527405,,,,,
6.847740000000044,-34.73529476812743,17.06105523733524,55.95183625688654,0.5633144378662109,-0.21857720613479614,-0.03149914741516113,,,,,
6.857254000000012,-28.670987451500583,18.44033005245243,58.24625843639849,0.09875240921974182,0.047803789377212524,0.11569195985794067,,,,,
6.866741000000047,-23.030885402551323,18.795114386040044,60.290490402193385,-0.3711734116077423,0.13011009991168976,0.12456214427947998,,,,,
6.87624900000003,-18.243066058999755,18.325235763049804,61.557955644048256,-0.7451997399330139,0,-0.09202104806900024,,,,,
6.885779999999954,-14.085235935059726,17.478700899868137,60.99793493399115,-0.8236897587776184,-0.10217486321926117,-0.07319110631942749,,,,,
6.89526699999999,-10.454794710641083,16.67852146752215,58.923612788120515,-0.5420573353767395,-0.32962167263031006,-0.03812927007675171,,,,,
6.90477599999997,-7.1369861357625055,16.307464287851737,55.82845577573021,-0.061493486166000366,-0.6943792700767517,-0.167527973651886,,,,,
6.914288000000056,-3.678435524949991,16.459563680047708,53.11216549083178,0.4019719362258911,-0.9693117141723633,-0.20470136404037476,,,,,
6.923621000000026,0.14375388988276613,16.842561492996882,51.54009913353715,0.7143588662147522,-1.1006476879119873,-0.22623056173324585,,,,,
6.933136999999988,4.431909267661152,17.073400499749635,51.449501191331244,0.8145965337753296,-1.1275333166122437,-0.3129597306251526,,,,,
6.942663000000039,9.29184646038953,16.881958996515205,52.50482762686517,0.6081455945968628,-0.969127357006073,-0.32227611541748047,,,,,
6.952344000000039,14.378072245572172,16.135135491113832,53.875279554676155,0.19425556063652039,-0.7331100106239319,0.048063576221466064,,,,,
6.961851000000024,19.041229390011043,15.05450694155855,54.68424450230085,-0.18675720691680908,-0.7808990478515625,0.08871370553970337,,,,,
6.971357000000012,23.43074482232091,14.168210453829968,54.45791432077547,-0.45281702280044556,-0.7806888818740845,0.19785559177398682,,,,,
6.980869999999982,27.453045497659083,13.913102751831124,53.18202867570871,-0.512040913105011,-0.764115035533905,0.48482465744018555,,,,,
6.990372999999977,30.785162614390842,14.374955161134453,51.19293094811083,-0.31096839904785156,-0.9976377487182617,0.4776803255081177,,,,,
6.999893000000043,33.652809141144324,15.298502169293972,49.12265539394633,0,-1.2132782936096191,0.4931066632270813,,,,,
7.00922700000001,36.1089419988695,16.204885712256907,47.54619628152681,0.2920500338077545,-1.320068120956421,0.5585758090019226,,,,,
7.01872800000001,37.98880834682067,16.583437475560636,46.71147031835278,0.46821892261505127,-1.4036056995391846,0.48365724086761475,,,,,
7.028222000000028,39.32584364707203,16.184869497184863,46.61977608465409,0.45934218168258667,-1.3730318546295166,0.4031645655632019,,,,,
7.037763000000041,40.06833540235254,15.142269446227028,46.97557644350093,0.23952721059322357,-1.2052184343338013,0.41004228591918945,,,,,
7.047441000000049,40.014878418453925,13.857667833036556,47.315781807955396,-0.08671320974826813,-1.052717924118042,0.3392735719680786,,,,,
7.056957000000011,39.26322812501051,12.834244687005445,47.17472502465673,-0.3827586770057678,-0.8654506802558899,0.3054882287979126,,,,,
7.066468999999984,37.87663805646461,12.442874126289741,46.2665263594729,-0.5399787425994873,-0.6683337092399597,0.30835944414138794,,,,,
7.07598500000006,35.864556509737376,12.697387471149455,44.53918903020242,-0.48439860343933105,-0.6264169812202454,0.16995179653167725,,,,,
7.0855020000000195,33.51745693166882,13.288312202106152,42.18911574730735,-0.2210666984319687,-0.6588761806488037,0.08127540349960327,,,,,
7.095018999999979,31.08121733965091,13.820676874854577,39.61110180353033,0.11298331618309021,-0.6705805063247681,0.08100330829620361,,,,,
7.104532000000063,28.62006527501811,13.96657175919168,37.26496762792309,0.39386165142059326,-0.7180280685424805,0,,,,,
7.113860000000045,26.378732225717236,13.579787248748275,35.49548928359706,0.5461423397064209,-0.7548357248306274,-0.1854223608970642,,,,,
7.123569999999972,24.53640128051112,12.726808555636195,34.2437058522407,0.49527475237846375,-0.6116183996200562,-0.10778617858886719,,,,,
7.1330540000000155,22.850209470923296,11.600041160392747,33.20945791280224,0.3249948024749756,-0.5364177227020264,-0.15293759107589722,,,,,
7.142573999999968,21.314734978227378,10.458228370367094,31.91009958475198,0.14949855208396912,-0.4653943181037903,-0.21689242124557495,,,,,
7.152067999999986,19.798963294643816,9.528922904342162,29.953211521909783,0.0549408420920372,-0.5046794414520264,-0.1935628056526184,,,,,
7.161568999999986,18.528038323136276,8.865078319625002,27.155382720244486,0.1418236941099167,-0.6122004985809326,-0.23643314838409424,,,,,
7.171098000000029,17.532998677498533,8.399751779781251,23.676304145331844,0.33069396018981934,-0.6782220602035522,0.28680431842803955,,,,,
7.180611999999996,16.67845478537774,7.974241550155243,19.977789974399954,0.5522074699401855,-1.1838879585266113,0.1997007131576538,,,,,
7.190114999999992,16.84202578238043,7.329303040347764,16.690129007418797,0.7101318836212158,-1.343436598777771,0.436248242855072,,,,,
7.199438999999984,17.85780140522627,6.38644151692452,14.226719815212928,0.8152889013290405,-1.415738821029663,0.2990838885307312,,,,,
7.208945999999969,19.682565560339043,5.28197765056916,12.741755147621213,0.880272626876831,-1.3624558448791504,0.26303088665008545,,,,,
7.218466000000035,22.150975944732984,4.1177696795996,11.921408178211312,0.7777730822563171,-1.173094630241394,0.28390568494796753,,,,,
7.228154000000018,24.835724834295657,2.676430224233998,11.05916903104195,0.7299438714981079,-0.9809095859527588,0.24680298566818237,,,,,
7.237668999999983,27.385359411927865,1.1104906089595918,9.600380369840606,0.7943446040153503,-0.9351332187652588,0.19727742671966553,,,,,
7.246992999999975,29.80502223437651,-0.08412941071875406,7.364187952917661,0.7410221099853516,-0.9171761274337769,0.10707104206085205,,,,,
7.25649999999996,32.02944741340553,-0.8409214527799751,4.3323278426584135,0.6589924693107605,-0.9533714056015015,0.07834339141845703,,,,,
7.266020000000026,33.99931384442693,-1.297105023147381,0.7334445380641954,0.7256877422332764,-1.0814354419708252,0.1025967001914978,,,,,
7.2755240000000185,35.73304511398866,-1.427195050092609,-2.885578835682344,0.769043505191803,-1.1835827827453613,0.1492430567741394,,,,,
7.285032000000001,37.07983898266671,-1.4280478115978374,-6.135118679665523,0.7580486536026001,-1.2554497718811035,0,,,,,
7.3040620000000445,38.243630695816364,-2.030571815532326,-11.304658348300947,0.9439464807510376,-1.1859326362609863,-0.0781143307685852,,,,,
7.31356500000004,37.72615610702381,-2.525173627287218,-13.446431317440833,0.7962319850921631,-0.9787700176239014,-0.03289860486984253,,,,,
7.323092999999972,36.17901182398236,-3.136460094519359,-15.746146514299511,0.4249330759048462,-0.8727134466171265,-0.152171790599823,,,,,
7.332784000000061,33.9600940660877,-3.8731009879354197,-18.425210624364258,0,-0.4973047375679016,0.2022308111190796,,,,,
7.3422970000000305,30.770047290862312,-4.399190202981582,-21.14616916368165,-0.3315204083919525,-0.2057827115058899,0.20424848794937134,,,,,
7.351809000000003,26.70692093719767,-4.514516642309101,-23.47493195885094,-0.36890920996665955,-0.3615815043449402,-0.468210369348526,,,,,
7.36131899999998,23.065407232865727,-4.443869494947549,-25.10174821924325,-0.12953466176986694,-0.049374788999557495,-0.4679233729839325,,,,,
7.370821999999976,19.28729487593311,-4.317182120196568,-25.84072373354592,0.40922826528549194,0.38449907302856445,0,,,,,
7.380347000000029,15.00446448820185,-4.180834194744981,-25.77855820487602,0.8930158615112305,0.3791090250015259,-0.26493245363235474,,,,,
7.389827999999966,10.88448228961166,-4.428106442673483,-25.239356900251753,0.9802078604698181,0.434475302696228,-0.45541149377822876,,,,,
7.3993410000000495,7.013797654923986,-5.3619051220938125,-24.51630298646727,0.9122247695922852,0.5532054901123047,0.16279858350753784,,,,,
7.408855000000017,3.7109933202779817,-6.769372213682322,-23.81898131490535,0.5244567394256592,0.04912145435810089,0.5606683492660522,,,,,
7.418358000000012,2.9862751254398407,-8.715283654377886,-23.22547629486409,0.16381050646305084,0.04580814391374588,-0.5961962938308716,,,,,
7.427888000000053,3.871534519310969,-10.777202251665331,-22.984585636609054,0,0.23909199237823486,-0.38862234354019165,,,,,
7.437303000000043,5.189128965106433,-12.334261682690638,-23.266400748183276,-0.06035992503166199,-0.45834892988204956,-1.292985439300537,,,,,
7.446900000000028,8.07441617475124,-13.421158431485308,-23.83063927062917,0.2380843609571457,-0.34171926975250244,-0.6533341407775879,,,,,
7.4562590000000455,10.707791239592407,-14.116090569112124,-24.4402307747045,0.9104679822921753,-0.6383550763130188,-0.5077626705169678,,,,,
7.465735999999993,13.066132343382606,-14.578953180397182,-24.718293204281878,1.6502492427825928,-1.2284371852874756,-1.629241943359375,,,,,
7.475239999999985,16.261236129066074,-15.2247071773993,-24.42256108820632,2.010958671569824,-0.7969993352890015,-1.2911739349365234,,,,,
7.48475099999996,18.870750568740934,-16.759595925284838,-23.878813189324827,1.9122246503829956,-0.874599814414978,-0.843399167060852,,,,,
7.494269000000031,21.034510216734436,-19.324547969372045,-23.430101490062782,1.5468063354492188,-1.11907958984375,-0.9120081663131714,,,,,
7.5037829999999985,23.859446886295856,-21.999722120811267,-23.251737453522814,0.6866538524627686,-0.9524211287498474,-0.5192117691040039,,,,,
7.513470999999981,27.171238410694198,-24.152644260540086,-23.610804452478494,-0.12191691994667053,-0.7549494504928589,-0.22065550088882446,,,,,
7.522804000000065,30.775958974399206,-25.407538553533442,-24.80099409776139,-0.3184784948825836,-0.9461471438407898,-0.3356893062591553,,,,,
7.53250700000001,34.930906997782266,-25.416598906425158,-26.423696762322646,-0.12610548734664917,-0.9318451285362244,0,,,,,
7.54200800000001,38.715066241310126,-24.279461672443933,-27.838279054605785,0.1893584132194519,-1.0260605812072754,0.4961274266242981,,,,,
7.551342999999974,41.43049541061638,-22.641447554633633,-28.55440408624448,0.5174380540847778,-1.3021258115768433,0.7062340974807739,,,,,
7.56101799999999,42.91659247298621,-20.969797527468028,-28.03793020333131,0.7807454466819763,-1.249181866645813,0.7924546599388123,,,,,
7.5705299999999625,42.52468792892525,-19.381727012334085,-26.071231372192322,0.8807199001312256,-1.0025732517242432,0.5026505589485168,,,,,
7.580061999999998,40.846121932363715,-18.278490359372363,-23.49854753432794,0.11938303709030151,-0.71101975440979,0.07400482892990112,,,,,
7.589560000000006,38.69135604861132,-17.97220520176232,-21.561943179289592,-0.3771952986717224,0,1.3879220485687256,,,,,
7.599066999999991,35.421660961694016,-17.21496649661672,-20.26714633275533,-0.9504282474517822,0.11694151163101196,1.0722758769989014,,,,,
7.608576999999968,32.54826100127905,-15.524542775816753,-19.864366603744056,-1.9476244449615479,0.6533666253089905,1.28975248336792,,,,,
7.618086000000062,29.171787682418742,-13.779620282414992,-21.042286764730576,-1.9654667377471924,1.201979398727417,2.254727363586426,,,,,
7.627609000000007,24.161091408003315,-12.253326562299083,-23.172530859549166,-1.365842342376709,0.24210548400878906,0.6633725762367249,,,,,
7.637112000000002,19.92349930937817,-11.602435939944233,-25.305377635521207,-0.7332479953765869,0.13753235340118408,0.9528984427452087,,,,,
7.656135000000063,10.823765346567699,-15.431043822184444,-27.40327653450034,0.9468137621879578,0.06792789697647095,-0.2271348237991333,,,,,
7.674972000000025,3.41499508393775,-23.554657486467885,-25.702597228733026,0.6137819886207581,0.7978806495666504,-0.9324353933334351,,,,,
7.68447500000002,-0.037577904046704594,-28.249883203343124,-24.923036763270872,0.3784834146499634,0.5473822355270386,-2.319251775741577,,,,,
7.694069000000013,-1.6377337255891733,-32.097753366187064,-25.140401911809537,0.3106156587600708,0.4160950481891632,-3.2415542602539062,,,,,
7.703597000000059,-0.9740347844525158,-34.510387834464915,-26.770651902510238,0.6972648501396179,0.43589454889297485,-3.6029038429260254,,,,,
7.713003999999955,1.0943892879550112,-35.0149922218969,-29.44294000891369,1.5740339756011963,0,-3.8325672149658203,,,,,
7.722511000000054,4.238647714968426,-33.61812753028784,-32.04400240222209,2.436234712600708,-0.3800172209739685,-3.1893177032470703,,,,,
7.732034999999996,7.8124032536008094,-31.243847775028563,-33.28921190418738,3.365016460418701,-0.9022350311279297,-2.8667654991149902,,,,,
7.741545999999971,11.132612475090458,-28.926198108157152,-32.44769775893719,3.386631727218628,-0.7110593318939209,-1.5358071327209473,,,,,
7.751053999999954,13.170076296510016,-27.32113191874153,-30.022824500045736,2.2816426753997803,-0.8077201247215271,-1.2202945947647095,,,,,
7.760563000000047,15.087533225792026,-26.652433715820056,-27.419948393460707,0.7136175632476807,-0.9882603883743286,-1.3965122699737549,,,,,
7.770264999999995,18.70874676149722,-26.51620857086239,-25.882517607479347,-0.38396191596984863,-0.5163733959197998,-0.08445793390274048,,,,,
7.7797669999999925,22.494338333987514,-25.680998108377818,-25.85206274971572,-1.5588935613632202,0.10192415118217468,1.5140020847320557,,,,,
7.789105000000063,24.60375715429514,-23.566849565367946,-27.287092698235046,-2.371997356414795,-0.6315443515777588,0.6790366768836975,,,,,
7.798606000000063,26.599975212024503,-20.639761646288914,-29.562490995153837,-2.569840669631958,-0.7314488291740417,1.4720516204833984,,,,,
7.808300000000031,27.185322956200945,-17.248294608644553,-31.686840889794755,-2.2051446437835693,-0.6575217843055725,2.4071953296661377,,,,,
7.817813000000001,25.595095857277826,-14.039652217600903,-32.81652550697832,-1.5946049690246582,-0.9836084842681885,1.8395774364471436,,,,,
7.827329999999961,23.025430159632535,-12.074281858249195,-32.5010205519242,-0.9121165871620178,-0.47580575942993164,2.1746301651000977,,,,,
7.836836000000062,19.064132177716576,-11.615153986307893,-30.729822936558886,-0.08613382279872894,-0.24289575219154358,1.758108377456665,,,,,
7.84634200000005,14.984238020237045,-12.298293876549627,-27.736800959241492,0.3430978059768677,0.3256573975086212,1.154686450958252,,,,,
7.855861000000004,10.666603312410002,-14.149098485609922,-24.46352280293664,0.42459243535995483,1.051324486732483,0.9782063961029053,,,,,
7.86538900000005,5.616974893100479,-17.166207168207563,-21.996693228246507,0.2218293845653534,0.6269227266311646,-0.41347283124923706,,,,,
7.874693999999977,2.2305740692893474,-21.22200121231664,-21.005643632709525,-0.061749815940856934,0.6107717752456665,-0.9969672560691833,,,,,
7.884228000000007,0.760226053813012,-25.865988691255346,-21.736719798889684,-0.30325204133987427,0.9965022802352905,-1.2921142578125,,,,,
7.893798000000061,0.4695999505973878,-30.331736950518515,-24.11252326326002,0,0.5001959204673767,-2.9419045448303223,,,,,
7.903308000000038,2.093842741015741,-33.7337247786712,-27.30636667113346,0.6684823036193848,0.21163959801197052,-3.5629982948303223,,,,,
7.912740999999983,4.216469461859039,-35.559519250438655,-30.086517372915633,1.586764931678772,0.12509435415267944,-3.2472143173217773,,,,,
7.92225099999996,5.491657432469853,-35.694133825478914,-31.401160059972486,2.6267330646514893,-0.40791189670562744,-3.618121385574341,,,,,
7.931758000000059,6.966994151704105,-34.518290972198635,-31.00912666535595,3.1278791427612305,-0.333038330078125,-2.652812957763672,,,,,
7.941268000000036,8.767870094160797,-33.220764740799126,-29.662619852065536,2.9634573459625244,-0.666126549243927,-2.302353858947754,,,,,
7.950787999999989,11.98521707957712,-32.297302878597876,-28.37338400226057,1.8277854919433594,-0.4201575517654419,-1.2564013004302979,,,,,
7.9603120000000445,16.104016656922468,-31.34801735384209,-28.219519354770622,0.38568562269210815,-0.6638317108154297,-1.2312554121017456,,,,,
7.969810000000052,21.749126327312432,-30.37592783360848,-29.713889522259215,-0.4268956184387207,-0.701536238193512,-0.5271173119544983,,,,,
7.97950800000001,28.388982317605453,-28.571491868701393,-32.44084728727444,-0.969922661781311,-0.33636367321014404,1.261361837387085,,,,,
7.989018999999985,33.623549139391095,-25.28326961107088,-35.27675652532023,-1.00508451461792,-0.8707120418548584,1.3179043531417847,,,,,
7.99833799999999,37.54273232837993,-21.331230607643295,-37.391230564272085,-0.8909320831298828,-1.3207589387893677,1.237589716911316,,,,,
8.008032999999955,40.048852818177856,-17.944140903572926,-38.40360314674454,-0.5714409351348877,-1.2943217754364014,1.9023239612579346,,,,,
8.027043000000049,38.48999717800944,-14.47529080380957,-35.93088320797932,-0.09918558597564697,-1.1830720901489258,1.2682721614837646,,,,,
8.036568999999986,35.710400201388865,-14.751313545148461,-33.086260409811366,0,-0.4497329890727997,1.3743507862091064,,,,,
8.046075999999971,31.52652533109933,-15.937595943404656,-29.935953505307182,-0.04283086955547333,0.03505063056945801,1.090263843536377,,,,,
8.05559500000004,26.978699221171013,-17.705031201169465,-27.213281096803872,-0.34127604961395264,0.1584230661392212,0.030714690685272217,,,,,
8.065111000000002,23.30500959653701,-19.9891643017657,-25.659643465700533,-0.3802609145641327,0.8727699518203735,0.3342605233192444,,,,,
8.074613999999997,19.359644114253665,-22.394494806969192,-25.517371131129106,-0.19691254198551178,0.6406856775283813,-0.6402356624603271,,,,,
8.083941999999979,16.628901796070075,-24.97858525584616,-26.746035207080094,0.3178226351737976,0.1546812355518341,-1.7808352708816528,,,,,
8.093448999999964,16.007962810455716,-27.862333513196088,-28.935184647611667,1.0064146518707275,0.4140622019767761,-2.22221040725708,,,,,
8.10296100000005,15.849005726525052,-30.66535214300001,-31.398479205752974,1.8384363651275635,0.07038863003253937,-3.030646324157715,,,,,
8.112472000000025,16.629073518694348,-32.71471022512154,-33.109316272645316,2.6849071979522705,-0.5247325897216797,-3.3094377517700195,,,,,
8.121981000000005,18.57111410433901,-33.82920936394253,-33.372256706915614,2.9943673610687256,-0.4450685381889343,-2.310997247695923,,,,,
8.131484,20.28371251219461,-34.59390401880042,-32.34524006405299,2.601702928543091,-0.7613731622695923,-1.9038023948669434,,,,,
8.140995999999973,22.47401820805514,-34.91892857458949,-30.741783090598755,1.5583295822143555,-0.6340223550796509,-1.4503581523895264,,,,,
8.150509000000056,25.753655186266652,-34.330041445313455,-29.826205578483155,0.43170803785324097,-0.8087376356124878,-1.162656307220459,,,,,
8.160025000000019,30.859229738712127,-32.810232731831036,-30.463128928082558,-0.2447403371334076,-0.8300692439079285,-1.1025164127349854,,,,,
8.169728999999961,37.419744036477304,-30.176342253217783,-32.51057010676358,-0.17158839106559753,-0.4448544383049011,0.2022075057029724,,,,,
8.179224999999974,43.05571670347009,-26.276243799849514,-34.95281371881237,0,-0.8033351302146912,0.7779850959777832,,,,,
8.188559000000055,47.37545012174501,-21.97540008487518,-36.95223725408086,0.32836753129959106,-1.3222718238830566,0.8232579231262207,,,,,
8.198069000000032,50.35265675706927,-18.2587251169494,-37.908768107669474,0.4195866882801056,-1.3801971673965454,1.3294243812561035,,,,,
8.20757100000003,51.19404817100672,-15.808846949285304,-37.58765486134693,0.029848694801330566,-1.55592942237854,1.0915470123291016,,,,,
8.21709599999997,50.5244159769848,-14.947376558011696,-36.28988101988947,-0.6195632219314575,-1.4401664733886719,0.9612017869949341,,,,,
8.226604000000066,48.810357034347795,-15.137281728250244,-34.21877338083948,-1.3630634546279907,-0.62000972032547,1.705868124961853,,,,,
8.236296000000038,45.3334916095469,-15.263580346217392,-31.574636335016162,-1.9398128986358643,0.05346423387527466,1.7626395225524902,,,,,
8.245616000000041,40.80652258764071,-14.707008655256466,-29.15677790848046,-2.089019536972046,0.20411264896392822,0.9244017601013184,,,,,
8.255300000000034,36.53375880992746,-13.581774927855768,-27.530442127900237,-1.6678444147109985,1.0103058815002441,1.7294058799743652,,,,,
8.26482999999996,30.81918475087202,-12.29954976292584,-27.086538927761175,-0.7649275064468384,0.6011455059051514,0.7535806894302368,,,,,
8.274316999999996,25.503945487722437,-11.84482889246662,-27.665493889857935,0.20468933880329132,-0.03846466541290283,-0.42389705777168274,,,,,
8.283845000000042,21.697432823269292,-12.974437916884048,-28.683943192243554,0.9913468360900879,0.5092570185661316,-0.04172062873840332,,,,,
8.293169000000034,17.57832705409799,-15.677103073534402,-29.76026262148775,1.4214000701904297,0.32065874338150024,-0.9767202138900757,,,,,
8.302685999999994,14.254176960025887,-19.530842067559462,-30.575037000916534,1.5314512252807617,-0.10514974594116211,-2.207927942276001,,,,,
8.321696999999972,11.88507924928463,-27.21775485510417,-31.83525143891112,1.3689804077148438,0.3366597890853882,-2.7226202487945557,,,,,
8.331215000000043,12.0551586305598,-29.349899708120375,-32.87996747101205,1.556754231452942,-0.09752944111824036,-3.5268235206604004,,,,,
8.340724000000023,14.205757227871365,-29.828963775886276,-34.22259871454721,2.220231771469116,-0.27699407935142517,-2.8389968872070312,,,,,
8.350225000000023,17.57111700572129,-28.354317554949354,-35.40137354185535,2.6612050533294678,-0.7895129919052124,-2.0159201622009277,,,,,
8.359735999999998,21.966824878506856,-26.12736843776191,-36.01388410275946,2.6445553302764893,-0.7616579532623291,-1.0491994619369507,,,,,
8.369436000000064,25.482677825566604,-24.058068567401648,-36.10865718085004,2.4047470092773438,-0.8484898209571838,0,,,,,
8.378769000000034,28.0450477658686,-21.90417328206243,-35.74654232795639,1.4243499040603638,-1.6085128784179688,-1.2306134700775146,,,,,
8.388481999999954,32.07549072019671,-20.15599922268,-35.370912296938826,0.33997347950935364,-0.9324990510940552,-0.12356424331665039,,,,,
8.397963000000004,35.07618670713423,-18.745513919061572,-35.26820201121244,-0.3978264331817627,-0.5221565961837769,1.4463454484939575,,,,,
8.407301999999959,35.69099044826325,-16.997108972473097,-35.004205428992016,-1.2376383543014526,-1.2871944904327393,0.5081450343132019,,,,,
8.416813000000047,36.117837617665785,-15.044828850936998,-34.46904689249652,-1.9146515130996704,-0.8722538948059082,1.3287053108215332,,,,,
8.426508000000013,35.03247961438524,-13.081985291640441,-33.835235635219476,-1.9331154823303223,-0.5600863099098206,1.7147903442382812,,,,,
8.43601000000001,32.500854789829845,-11.09550638803624,-32.896098402393676,-1.6451764106750488,-0.5235690474510193,1.4192214012145996,,,,,
8.445528999999965,29.36090515248307,-9.441667290143245,-31.716880963228423,-1.259041428565979,-0.07539594173431396,1.5292918682098389,,,,,
8.455035000000066,25.807555231126123,-8.707723606672971,-30.6463615179427,-0.6929869651794434,0.09826469421386719,0.9066616296768188,,,,,
8.464558000000011,22.388594867025493,-9.070134856906902,-29.77262040886963,-0.23539875447750092,0.6305091381072998,1.0295979976654053,,,,,
8.474059000000011,18.399288985283537,-10.615053640321511,-29.38924206415244,-0.06728054583072662,0.3587571084499359,-0.09216850996017456,,,,,
8.483564000000001,15.351891236985745,-13.609784849369497,-29.699952580554978,0.07091200351715088,0.25776636600494385,-0.7297111749649048,,,,,
8.49309900000003,13.513925696263689,-17.68419349828354,-30.705536729116645,0.1995309591293335,0.5172008275985718,-0.7444325685501099,,,,,
