timestamp,Roll,Pitch,Yaw,Acc X,Acc Y,Acc Z,Gyro X,Gyro Y,Gyro Z,Acc Magnitude,Gyro Magnitude
0.0,34.44435905389012,8.243332144942924,161.4722752982864,-0.030931904911994934,0.056836605072021484,0.13604283332824707,,,,,
0.009490000000027976,34.62921769231012,7.683564264554302,161.23126852976156,-0.11942961812019348,0.049774348735809326,0.22775208950042725,,,,,
0.019000000000005457,34.80986588259798,7.170949106654925,160.82607973253303,-0.17637866735458374,0,0.3400912284851074,,,,,
0.02851399999997284,35.05307868851009,6.800047912151882,160.39995126509123,-0.32115882635116577,-0.05618411302566528,0.35894107818603516,,,,,
0.038018999999962944,35.345294224136765,6.3600895434162945,159.87951405807036,-0.3805229067802429,-0.1035342812538147,0.4536219835281372,,,,,
0.04753600000003644,35.678928750708906,5.8038567909078,159.39858472671477,-0.3853065073490143,-0.16789603233337402,0.5422841310501099,,,,,
0.05704800000000887,36.120736441340924,5.198974581320851,159.13216444797865,-0.4648780822753906,-0.17593052983283997,0.6340547204017639,,,,,
0.06654900000000907,36.63320983681709,4.459689839220937,159.03553436347784,-0.5102006196975708,-0.17789864540100098,0.6475011706352234,,,,,
0.07607299999995121,37.24395119326186,3.5943444796103834,158.96909308611933,-0.453058123588562,-0.155318945646286,0.6503682136535645,,,,,
0.08558900000002723,37.97104949751431,2.73552921128498,158.98361417908913,-0.38605600595474243,-0.11023396253585815,0.5622962117195129,,,,,
0.09508400000004258,38.79792719028092,1.866119763486635,158.9332887784726,-0.30241361260414124,-0.06921541690826416,0.4412221908569336,,,,,
0.10459900000000744,39.72915909143828,0.9395643141625805,158.74460935118154,-0.17341701686382294,-0.04959738254547119,0.35532253980636597,,,,,
0.11411099999997987,40.79910511693868,0.029028788159861457,158.4585898053493,-0.11612482368946075,-0.03441214561462402,0.2867875099182129,,,,,
0.12364200000001802,41.98104452385395,-0.8703328467007616,158.0494763322348,-0.13256953656673431,-0.037613511085510254,0.2068379521369934,,,,,
0.13314600000001064,43.27150840576112,-1.8146416843744528,157.55823407259734,-0.14271943271160126,-0.06026393175125122,0.1706659197807312,,,,,
0.14266999999995278,44.66068218764503,-2.7637289728203385,157.1110627022468,-0.16050812602043152,-0.07480049133300781,0.17505431175231934,,,,,
0.1521659999999656,46.09883104049367,-3.7030803538576453,156.6904357661605,-0.17982181906700134,-0.10882216691970825,0.10231184959411621,,,,,
0.16166499999997086,47.600933327381796,-4.684219904857333,156.3356571574245,-0.14250579476356506,-0.12480956315994263,0.0749356746673584,,,,,
0.1711840000000393,49.131113490770744,-5.705537792752104,156.08439132411786,-0.06462837755680084,-0.14151036739349365,0.036379098892211914,,,,,
0.18071499999996377,50.673238359241346,-6.748055867272616,155.84215692031606,0,-0.15746891498565674,-0.037989914417266846,,,,,
0.19020100000000184,52.21172518848131,-7.811806690993517,155.43440293955462,0.051085472106933594,-0.16636353731155396,-0.08276653289794922,,,,,
0.19971799999996165,53.71813491065121,-8.861618059325076,154.95697091944746,0.07783366739749908,-0.1835576891899109,-0.11088061332702637,,,,,
0.20922299999995175,55.186184709398184,-9.842452249684612,154.44246492038266,0.05262881517410278,-0.1967099905014038,-0.12014248967170715,,,,,
0.21874300000001767,56.584803174316484,-10.7344899847606,153.83875096002117,0,-0.21274292469024658,-0.12453672289848328,,,,,
0.2282310000000507,57.90167225913795,-11.536709453547898,153.16541924554025,-0.041361868381500244,-0.2324148416519165,-0.12043336033821106,,,,,
0.23774700000001303,59.11377040424432,-12.244172259879393,152.51364674248404,-0.07639312744140625,-0.2356758713722229,-0.11948707699775696,,,,,
0.24725000000000819,60.184561112341676,-12.876265311073059,152.00667326825283,-0.09034448862075806,-0.24232012033462524,-0.13984689116477966,,,,,
0.2567699999999604,61.12996832664672,-13.464189054954325,151.5912198772441,-0.06838226318359375,-0.23740530014038086,-0.12516790628433228,,,,,
0.27578300000004674,62.68115441478692,-14.55569161075509,150.8807043964463,0,-0.20810508728027344,-0.13639825582504272,,,,,
0.28529600000001665,63.348081955908086,-15.073219144974578,150.5576635274386,0.049309492111206055,-0.19162124395370483,-0.130435049533844,,,,,
0.29481299999997646,63.98597920741951,-15.558091893226047,150.21146054449102,0.07188281416893005,-0.18094921112060547,-0.11566123366355896,,,,,
0.3043159999999716,64.61499927933946,-15.992844332476121,149.87999504966857,0.05920511484146118,-0.1729242205619812,-0.10548076033592224,,,,,
0.31383500000004005,65.24457174834401,-16.3814916387059,149.52413435839046,0.02974805235862732,-0.1761590838432312,-0.0831555724143982,,,,,
0.32333600000004026,65.8725271695052,-16.723759881459515,149.1265666446961,0,-0.185533344745636,-0.042133867740631104,,,,,
0.33284100000003036,66.47542099543405,-17.020999340255614,148.76647800200578,-0.04756578803062439,-0.1935807466506958,0,,,,,
0.3423520000000053,67.0318677000683,-17.295020863536095,148.4341017151538,-0.06922033429145813,-0.20398855209350586,0,,,,,
0.35187499999995,67.53595104714886,-17.558522658302877,148.15136862636953,-0.05872879922389984,-0.20765799283981323,0.03484278917312622,,,,,
0.3613870000000361,67.97582387189048,-17.80835694932259,147.93797149234058,-0.034827589988708496,-0.199188232421875,0.04187643527984619,,,,,
0.37090599999999085,68.35159314404756,-18.04065836073389,147.75025892572887,0,-0.18521517515182495,0.03764611482620239,,,,,
0.38042399999994814,68.6901300000467,-18.244074704927357,147.5717593523694,0.046261370182037354,-0.1676914095878601,0.041572362184524536,,,,,
0.38994100000002163,69.01258945735827,-18.399159339873883,147.38814549211992,0.07126107811927795,-0.14905506372451782,0.04003450274467468,,,,,
0.39943800000003193,69.27444830265057,-18.497648587908436,147.14264096451262,0.0732886791229248,-0.10421335697174072,0.2084946632385254,,,,,
0.4089410000000271,69.18413818844168,-18.53499776687538,146.85880624347166,0.08999386429786682,-0.31772273778915405,-0.029510021209716797,,,,,
0.4184380000000374,69.27379214179784,-18.56604303251006,146.54769338757777,0.0845995843410492,-0.2788020372390747,0,,,,,
0.42798100000004524,69.24349290249413,-18.604392662795096,146.23388441275384,0.06346851587295532,-0.13007301092147827,0.25068193674087524,,,,,
0.4374689999999646,68.69247774146355,-18.660093173255493,145.99026594421744,0.09109428524971008,-0.26730775833129883,0,,,,,
0.4469960000000128,68.0573640828507,-18.77153718471558,145.79633116112734,0.12072619795799255,-0.23724615573883057,0.04291403293609619,,,,,
0.4565850000000182,66.97351097018829,-19.10698064503002,145.71850205675048,0.14836683869361877,-0.12227481603622437,0.13714197278022766,,,,,
0.4660949999999957,65.58407164242716,-19.572626970740888,145.66440377507496,0.20388630032539368,-0.1555151343345642,0,,,,,
0.47560699999996814,64.06593309292712,-20.04399473876386,145.57755967970013,0.24957406520843506,-0.08457392454147339,-0.04027897119522095,,,,,
0.48504800000000614,62.2165768780991,-20.187120949055284,145.46058593736362,0.2916339933872223,0,0,,,,,
0.4946220000000494,60.04393519446951,-20.689475441631128,145.1824738628735,0.3570975363254547,0,-0.22861766815185547,,,,,
0.504079000000047,57.32569742701785,-20.780556271676264,144.9161805394415,0.45418527722358704,0.03883206844329834,-0.3184810280799866,,,,,
0.5135729999999512,54.087446129954266,-20.87274109431183,144.6091372318146,0.5583319664001465,0.20665478706359863,-0.270587295293808,,,,,
0.5230569999999943,50.02433019620406,-20.982337271899993,144.39844248171622,0.6924513578414917,0.3188939094543457,-0.2736547887325287,,,,,
0.5325749999999516,44.99898170508163,-21.092213703422075,144.26748043568665,0.8748795986175537,0.4693331718444824,-0.11426311731338501,,,,,
0.5420860000000403,38.86381917254711,-21.135148473072622,144.3328109116829,1.0410759449005127,0.6648154854774475,0.09971779584884644,,,,,
0.5515950000000203,31.514993578140896,-21.087778051405873,144.57124294517823,1.1423759460449219,1.0444567203521729,0.6614362001419067,,,,,
0.5611169999999674,22.595616828859182,-20.9419958494309,144.87563057284214,1.1664695739746094,1.3522545099258423,1.116875171661377,,,,,
0.5706199999999626,12.40242011719569,-20.70371688409495,145.17115422057375,1.0632447004318237,1.6808750629425049,1.6446903944015503,,,,,
0.5801370000000361,1.0645048057790942,-20.39976113723018,145.38535994454057,0.8522773385047913,2.223710060119629,2.4348511695861816,,,,,
0.5896430000000237,-11.529574504248371,-20.08153177575251,145.15860180572247,0.6535099744796753,2.278981924057007,2.3187737464904785,,,,,
0.5991569999999911,-24.333074057652887,-19.72133949359196,145.04545207562853,0.5230313539505005,2.432934284210205,2.506601333618164,,,,,
0.6084859999999708,-37.24385489647811,-19.14009029399835,145.139962299343,0.45257630944252014,2.4809982776641846,2.0075724124908447,,,,,
0.6179989999999407,-49.707195526978765,-18.143471770644208,145.4289763257154,0.37733107805252075,2.1133780479431152,0.5902810096740723,,,,,
0.6275879999999461,-60.63388070698692,-16.619549677278677,145.78116445009337,0.06284797191619873,1.8666114807128906,-1.134935736656189,,,,,
0.637032999999974,-69.53938229814449,-14.758440029733437,146.26146763542314,-0.6859161853790283,1.3432841300964355,-4.600982666015625,,,,,
0.6465309999999818,-75.31926395264126,-12.914702161451604,147.57173151963212,-1.887815237045288,0.9760278463363647,-7.0836358070373535,,,,,
0.6560409999999592,-77.36311648174046,-11.34383057715284,149.99672765478203,-3.183950901031494,0.877109169960022,-7.321451663970947,,,,,
0.6655510000000504,-74.65171172601585,-10.581767146455215,152.20366588633613,-4.7088117599487305,0.9147400259971619,-6.680545330047607,,,,,
0.6750520000000506,-67.23259162744492,-11.695893949378641,152.08002827605836,-5.561657905578613,1.5549964904785156,-3.0359370708465576,,,,,
0.6845690000000104,-58.16570217019756,-14.634941738090886,148.92519037312735,-3.784581184387207,0.969556450843811,0.23732852935791016,,,,,
0.7035700000000134,-31.43534751081514,-17.674885608026678,136.48824446802635,0.5403054356575012,0.9060313701629639,1.9746325016021729,,,,,
0.7131050000000414,-17.90349355666489,-16.84220645826541,131.16502820894283,2.7338504791259766,0.5709596872329712,2.8828959465026855,,,,,
0.7224250000000438,-7.993379898977983,-15.662340269164442,128.79525199986622,3.4597766399383545,-1.2423748970031738,-0.22824716567993164,,,,,
0.7321120000000292,2.960821311404539,-15.70225919233167,129.64084457338652,2.4943289756774902,0,0.20476263761520386,,,,,
0.7416369999999688,11.781954102388122,-18.569987065009975,132.03284530021557,1.0585825443267822,0.579004168510437,1.5656259059906006,,,,,
0.7513179999999693,16.548355007094592,-22.9905450982116,134.1711221140538,-0.48346567153930664,-0.15824991464614868,0.4093053340911865,,,,,
0.7606640000000198,20.23370047508772,-26.584009714241677,134.8024701495751,-1.8370717763900757,0.2521418631076813,-0.22557425498962402,,,,,
0.7701720000000023,22.8867046557606,-28.169192695825576,132.78338591171646,-2.030025005340576,0.7570762634277344,-0.23396146297454834,,,,,
0.7796779999999899,23.60525419438278,-27.40973297256651,128.40326882671314,-0.9100383520126343,0.8234876394271851,-0.3755660951137543,,,,,
0.7893709999999601,21.738367580024004,-24.955890627004937,123.04937805110316,0.6287881135940552,1.4551303386688232,0.7556465864181519,,,,,
0.7988830000000462,15.740735203654584,-22.98272691071168,117.80490132511143,1.744624137878418,2.577493906021118,2.5816304683685303,,,,,
0.808398000000011,3.979971638925823,-23.54280367464718,113.91005637307877,2.5993943214416504,3.3232734203338623,4.040544509887695,,,,,
0.8178920000000289,-12.40342329270134,-25.99335341842567,113.06695868137801,2.9643404483795166,2.9921622276306152,5.203858375549316,,,,,
0.8274119999999812,-31.156470412411885,-28.124398654683333,115.91758824190747,2.239201068878174,3.3238604068756104,6.518457412719727,,,,,
0.8367379999999685,-51.70684960846507,-28.384640100092035,121.33274529714299,1.2594399452209473,3.8586432933807373,6.498202800750732,,,,,
0.8462580000000344,-72.47726873026556,-26.201390807035377,126.6688107274478,0.3366123139858246,3.808828353881836,5.19696569442749,,,,,
0.8558409999999412,-91.39578143083634,-22.684150663262376,130.1696254553314,-0.6678761839866638,3.7762434482574463,3.698404312133789,,,,,
0.8653580000000147,-109.14294604248735,-19.436173099299126,132.31948963589593,-1.4828342199325562,4.126596450805664,2.7364718914031982,,,,,
0.8748739999999771,-127.15712697131707,-17.304640379849342,134.06278011842178,-2.1570448875427246,4.201211929321289,1.6235442161560059,,,,,
0.884366,-146.30436657417528,-16.149534008560018,136.42414496955064,-3.0410056114196777,4.644732475280762,2.320269823074341,,,,,
0.8938859999999522,-167.82620237183053,-15.045867332953888,139.2128386555117,-3.7497968673706055,5.141488075256348,5.1119842529296875,,,,,
0.9033980000000383,169.73104010553044,-13.279972313596032,141.76386532394991,-4.234478950500488,5.9457244873046875,8.353286743164062,,,,,
0.9128339999999753,148.01059898821353,-11.327012035619227,141.2684980583002,-3.393502712249756,5.109398365020752,8.82142162322998,,,,,
0.9223429999999553,126.5060605874135,-12.219126883102552,139.71757571919753,-1.7986054420471191,5.343749046325684,8.573080062866211,,,,,
0.9318459999999504,104.98592028948167,-15.45664770128647,138.4648338950149,-0.2953372299671173,5.272497653961182,8.241189956665039,,,,,
0.9415319999999383,83.02000125466778,-19.578443645760505,138.96471500662423,2.804342746734619,4.878829479217529,7.877553462982178,,,,,
0.9510400000000345,59.556633583650644,-21.78140333494282,143.64717249952483,2.958167552947998,4.73716402053833,7.521347999572754,,,,,
0.9605649999999741,36.39018654481011,-20.55399108903215,147.45075420232772,0.8926971554756165,4.8891706466674805,7.228458881378174,,,,,
0.9700759999999491,14.93113697101944,-17.70739110265819,146.45575621772815,-0.4742995798587799,4.9971418380737305,6.008090496063232,,,,,
0.9795809999999392,-4.783313054528688,-15.468398703926491,140.89936888102608,-2.2158150672912598,4.066431999206543,3.279895544052124,,,,,
0.98891500000002,-21.807337559391335,-17.224693179958596,133.30212457270545,-3.162210702896118,3.972208261489868,3.7711520195007324,,,,,
0.9984269999999924,-38.079955972069335,-22.2932514081026,126.97659984056789,-1.9435417652130127,3.398785352706909,4.468681812286377,,,,,
1.0079369999999699,-54.22028150557662,-26.538409749324238,122.96005339050376,-0.36821115016937256,2.651258945465088,5.7239179611206055,,,,,
1.0174479999999448,-70.13555056796939,-27.74354260739363,121.23869482511742,1.0072680711746216,2.2105846405029297,6.118216037750244,,,,,
1.0269479999999476,-83.85070598818297,-25.353389258101284,120.19190502415293,2.9407458305358887,1.5405914783477783,5.0507073402404785,,,,,
1.0362850000000208,-92.13396248362933,-20.401777127381454,116.73551567501565,4.151856422424316,0.8844732642173767,2.768500328063965,,,,,
1.0457920000000058,-94.40509404321922,-15.170447805376043,112.55254125730224,3.524669647216797,0.9865450263023376,0.29769784212112427,,,,,
1.0553189999999404,-93.06257803114958,-11.909894702951826,111.99083992503621,3.8813860416412354,0.28547751903533936,-0.11015810072422028,,,,,
1.0648260000000391,-88.26814085449257,-11.309588956495933,115.42460757102904,4.0309834480285645,0.552879810333252,2.7822959423065186,,,,,
1.0743320000000267,-84.11815048227209,-12.900049103163258,120.42497553474095,2.387070417404175,0.4336143136024475,2.5636825561523438,,,,,
1.084019000000012,-80.2386627243008,-15.870200737450991,126.23696846452383,1.1229095458984375,-0.3451474905014038,0.6812165975570679,,,,,
1.0933559999999716,-74.59882142375538,-18.705144072146815,132.07440735680908,-1.0996390581130981,1.1080386638641357,1.4633146524429321,,,,,
1.102863999999954,-72.40120190145453,-20.600799043822995,137.859995556428,-3.9234085083007812,0.17383426427841187,-1.216782808303833,,,,,
1.1123699999999417,-72.29845357590801,-21.062479194805473,143.94375759171604,-5.455947399139404,-0.6477850675582886,-3.490370035171509,,,,,
1.1218810000000303,-71.99692898264247,-19.416087544607713,148.59264087517892,-5.7878828048706055,-0.14961498975753784,-4.58880615234375,,,,,
1.1313949999999977,-71.03814885718157,-16.49486911810483,150.27343199827615,-5.40969181060791,0.29754042625427246,-5.258184909820557,,,,,
1.140912999999955,-70.68340047791435,-14.199142439758857,149.49397633456323,-4.107338905334473,1.522212028503418,-3.96337628364563,,,,,
1.1504139999999552,-71.81192353077262,-13.006567710212199,146.55382685008905,-2.750211238861084,0.041910409927368164,-6.703527450561523,,,,,
1.1599209999999402,-68.60899040623273,-12.33210084021839,143.36493514490616,-1.942298173904419,0.9887513518333435,-3.3712258338928223,,,,,
1.1695210000000316,-64.72120517374144,-12.390902541776235,139.32839757264455,-1.6507457494735718,1.5830861330032349,-1.6942678689956665,,,,,
1.1789489999999887,-61.96446799031682,-13.495588422902932,135.14128182036555,-1.0678516626358032,0.514383852481842,-2.3423142433166504,,,,,
1.1885519999999588,-57.37789017142932,-15.082296366933043,130.8921714051023,-0.2211955487728119,0.8256022334098816,-0.7976564168930054,,,,,
1.198148999999944,-52.918162944365484,-16.357490497876334,126.18741711951978,0.1643504500389099,0.7295635342597961,-0.15107211470603943,,,,,
1.2076660000000174,-49.16462346060988,-17.11675494764042,121.76097805136983,0.5593708753585815,0,-0.7238131165504456,,,,,
1.2171590000000378,-44.85214978947532,-17.400205100420703,118.31993660900065,0.8867256045341492,0.2833053767681122,0.28351277112960815,,,,,
1.2266779999999926,-41.30541364439623,-17.16909795157369,115.64198486030851,1.0308809280395508,0.19313585758209229,0.8551394939422607,,,,,
1.2361979999999448,-38.120898296956355,-16.647041022578698,115.0436017634105,0.9883679151535034,0.26152798533439636,1.429314374923706,,,,,
1.245704000000046,-35.23461841390936,-16.374591034630228,114.59838892360604,0.9982997179031372,0.7686901092529297,2.9411706924438477,,,,,
1.255217000000016,-33.48928698117711,-16.469412421989993,112.04761497372037,1.2399786710739136,0.8623930215835571,4.077449798583984,,,,,
1.2647210000000086,-32.526571198601616,-16.73755948026895,108.75668011197354,1.6095409393310547,0.791546106338501,4.900362968444824,,,,,
1.2742379999999685,-32.04828770429338,-17.131921587327987,105.05506638349381,2.2024576663970947,0.6299989223480225,4.849476337432861,,,,,
1.293264000000022,-33.29843368940123,-17.936917796602817,99.4955974532753,3.2221426963806152,0.0715850293636322,3.2116858959198,,,,,
1.3027779999999893,-35.366774337055475,-18.119037666013885,99.35192975201338,2.8243250846862793,0.1784406304359436,2.4284005165100098,,,,,
1.3122749999999996,-39.46738936943462,-18.042872906390198,101.3729563473676,1.8115259408950806,0.14586538076400757,1.2528865337371826,,,,,
1.3218100000000277,-45.093956319405734,-17.33016368595093,104.9719367049615,0.4174615740776062,0.18734893202781677,0.040152907371520996,,,,,
1.331215000000043,-51.513404212124605,-15.794287387652075,109.12223045762545,-1.2574982643127441,0.8270931839942932,-1.278657078742981,,,,,
1.34088799999995,-58.87939326659215,-13.936798460787102,113.14950332400342,-2.9416966438293457,1.1658146381378174,-4.104947566986084,,,,,
1.3504110000000082,-66.03277290656673,-12.579637081538108,117.2058612672272,-4.887453079223633,1.384820818901062,-6.020740509033203,,,,,
1.3598349999999755,-72.13484494954363,-11.719227675518157,120.20342327621762,-5.7728729248046875,2.001901149749756,-5.052781581878662,,,,,
1.3693289999999934,-77.23711583252916,-10.867710220424922,120.48045825344619,-5.486468315124512,2.143829584121704,-5.834778785705566,,,,,
1.378863000000024,-81.30095497046494,-9.655990763814005,118.52515500769967,-4.053364276885986,1.9601348638534546,-4.5159149169921875,,,,,
1.3883630000000267,-82.46294574871274,-8.21602550149467,114.73242123553159,-3.1122918128967285,1.0503517389297485,-4.701101303100586,,,,,
1.3979419999999436,-80.18006972246744,-7.876230635558056,110.30430795092471,-1.8139455318450928,2.9923815727233887,-0.4089919328689575,,,,,
1.4074600000000146,-80.91586410783027,-9.306020936749688,106.07224228784199,0,2.015989065170288,-0.8718939423561096,,,,,
1.4168959999999515,-81.25626390745485,-11.765428407573589,103.26168480840647,1.589768409729004,0.5438980460166931,-2.186164379119873,,,,,
1.4263939999999593,-78.10575734009733,-14.16070570301642,99.86914133401154,2.2934324741363525,1.6365351676940918,-0.16832369565963745,,,,,
1.4359100000000353,-75.65081564450037,-15.875797523719807,97.29736764363801,2.567295551300049,1.2594707012176514,0.07250866293907166,,,,,
1.4454240000000027,-72.55581027581138,-16.35842245357749,95.57796002240258,2.3415467739105225,0.47982287406921387,-0.11439485847949982,,,,,
1.4547509999999875,-66.95038702689466,-15.469587967000518,94.2594532308914,1.573240876197815,1.1757892370224,2.333928108215332,,,,,
1.464448999999945,-61.36298012486135,-13.856262923580555,93.19857551382704,0.866069495677948,0.6343837976455688,3.3646187782287598,,,,,
1.4739610000000312,-54.44131278648666,-12.305078167566414,92.27390184337621,0.532811164855957,0.3973239064216614,4.291807174682617,,,,,
1.4834429999999657,-46.448088212257524,-11.409943515573293,91.00387659477357,0.90923672914505,0.3063690662384033,5.737750053405762,,,,,
1.492984999999976,-38.2198966791816,-11.241163117791885,90.35467514569353,2.032331943511963,-0.19009459018707275,5.066832542419434,,,,,
1.5024849999999788,-29.518884781428593,-11.311316836510866,89.25026264870547,3.2879741191864014,0.25713807344436646,5.129880428314209,,,,,
1.512010000000032,-22.912811808574666,-11.26760083815275,88.59535587951858,3.725482940673828,0.03131461143493652,3.8426525592803955,,,,,
1.521524999999997,-18.960045024255535,-11.402136584005536,89.6746430038798,3.0268023014068604,-0.568866491317749,1.4259625673294067,,,,,
1.5310240000000022,-16.61722301587302,-11.838047992938728,93.11263428459972,1.4584743976593018,-0.3522788882255554,0.6360729336738586,,,,,
1.5405459999999493,-16.688366298245498,-11.990960072271761,98.42575614565645,-0.7530716061592102,-0.05725216865539551,-0.32636111974716187,,,,,
1.549949999999967,-18.663637797056243,-11.498156351243486,104.54925750371355,-3.3349459171295166,-0.29317763447761536,-3.165976047515869,,,,,
1.5594539999999597,-18.870985457767183,-10.903957428331294,110.052417779216,-5.894082069396973,-0.3182000517845154,-5.4486308097839355,,,,,
1.5689569999999549,-15.27526138667265,-10.267769170931924,111.30086773519893,-7.700955867767334,0.22875149548053741,-4.913140773773193,,,,,
1.5784680000000435,-7.922815037196406,-9.454010960985338,108.51472724551203,-6.942748546600342,-0.2264777421951294,-3.9515576362609863,,,,,
1.5879099999999653,2.9631889514277767,-7.461188812899551,102.90215770797182,-3.829030990600586,-0.6930299401283264,-0.14911866188049316,,,,,
1.5974109999999655,16.699514852299583,-3.2185298794114066,97.8982495151863,-1.7210153341293335,-2.29628324508667,1.0209077596664429,,,,,
1.6071090000000368,36.199812243461736,1.3248730736632128,95.85924627044834,-0.3770143687725067,0.15105855464935303,4.565036773681641,,,,,
1.6166039999999384,55.5784594557684,3.365467100956897,97.49943453505237,1.7389503717422485,0.24353492259979248,6.209367275238037,,,,,
1.625942000000009,72.98777490281469,2.1826513446821525,100.47057681748,1.9786572456359863,-1.069056749343872,3.5406179428100586,,,,,
1.6354489999999942,91.97821450815655,-2.3531550313375416,101.95334891396146,0.9871140718460083,0.5882092714309692,3.1750876903533936,,,,,
1.6449589999999716,109.97462534364531,-7.781515206682334,99.26938841225223,0.11431777477264404,1.1512186527252197,4.671843528747559,,,,,
1.6544750000000477,125.41443947313482,-11.473086180821777,94.30137112129655,-1.0023646354675293,0.3269181251525879,3.0727524757385254,,,,,
1.6639840000000277,140.6159721088413,-12.52599487873678,89.77358166265381,-1.753578543663025,0.7433874607086182,1.7038131952285767,,,,,
1.673501999999985,155.01094584092056,-11.194811012814915,87.50073561451045,-1.1845015287399292,1.0795363187789917,1.9433733224868774,,,,,
1.6831939999999577,167.62663597688004,-9.95813075110245,88.38401603182659,0,0.31792181730270386,0.6392613649368286,,,,,
1.6926939999999604,-179.20683910384525,-10.788718453400929,90.94280681638762,1.2192753553390503,0.08629506826400757,-0.10019129514694214,,,,,
1.7020189999999502,-164.1187999644653,-13.379665162943715,92.783789655665,2.5584940910339355,0.32985198497772217,1.087516188621521,,,,,
1.7115509999999858,-146.57471698821644,-16.48826993292154,91.97207895328643,3.737978935241699,0.23559701442718506,2.7920570373535156,,,,,
1.7210420000000113,-125.0092244456526,-17.664087585465055,88.2128384253325,4.162177085876465,1.1656291484832764,4.810717582702637,,,,,
1.7305579999999736,-102.27644261118262,-14.501298298716957,84.90744837738538,4.425594806671143,3.220773935317993,7.471699237823486,,,,,
1.7400780000000395,-80.58502113511739,-8.062315944446325,85.5894573116892,3.8450984954833984,4.0954909324646,7.828839302062988,,,,,
1.7495780000000423,-59.187835547589785,-1.5329430463838043,90.78058315022975,1.452836036682129,4.216933250427246,7.479733467102051,,,,,
1.7591039999999794,-37.34837448024482,1.688076099861563,98.90894019400716,-2.0493907928466797,4.205658435821533,7.193842887878418,,,,,
1.7687859999999773,-16.101171639849824,-0.15476794244759526,106.19269554888585,-4.785592079162598,4.1162214279174805,6.635762691497803,,,,,
1.7782949999999573,3.6575452682647986,-4.03430168129186,108.45772588690015,-5.706095218658447,3.256650447845459,4.780487060546875,,,,,
1.7878110000000333,24.79560710950509,-4.717885958293208,105.47320465333075,-5.423007965087891,2.7858493328094482,4.680617332458496,,,,,
1.7973240000000033,46.80678242493265,-0.11132546736693978,100.47616324048607,-3.658284902572632,2.3348233699798584,7.15874719619751,,,,,
1.8068279999999959,68.44153254969612,8.652451497773548,97.77653578878943,-1.0396333932876587,1.047821283340454,7.6286492347717285,,,,,
1.8161669999999503,90.90655773477665,17.449015908496055,100.51751364151974,0.510012149810791,0.4087475538253784,8.007142066955566,,,,,
1.825676000000044,114.80905058203878,21.24222200126703,106.74628411635506,0.7130762338638306,-0.16108351945877075,8.382889747619629,,,,,
1.8352559999999585,137.39166757712624,18.74310689195063,110.65448164878957,-0.2795528173446655,-0.416732519865036,8.627120018005371,,,,,
1.844759999999951,155.30844931994244,13.542032487424338,108.2600093533182,-1.9213353395462036,0.19674018025398254,6.413211345672607,,,,,
1.8542830000000095,168.47918114169593,9.863355323541475,100.68840937170964,-2.8758368492126465,0.6845239996910095,4.900856018066406,,,,,
1.8638819999999896,178.62074140555546,7.911648299810156,91.85201588730341,-3.554417133331299,1.0183086395263672,2.6110668182373047,,,,,
1.873397999999952,-171.8157433733025,6.881932290972853,85.05569189977118,-3.3133742809295654,1.2418650388717651,1.700782060623169,,,,,
1.8829060000000482,-162.08693054700134,5.7020697400456255,82.14232911612943,-1.7556718587875366,1.1433930397033691,1.9941534996032715,,,,,
1.8924939999999424,-152.6605901394459,2.9616910428763363,82.91772362914067,0.5477745532989502,0.8359291553497314,2.1556460857391357,,,,,
1.901931999999988,-144.04979399477585,-1.8690341673094122,85.53892232589644,2.846794605255127,0.3737454414367676,2.1524338722229004,,,,,
1.9114479999999503,-135.60611613380397,-7.611059268317763,87.73318649758389,4.385805130004883,-0.2628628611564636,1.7137891054153442,,,,,
1.9209529999999404,-125.38825878842161,-11.964826397146053,87.83724810852911,4.854250907897949,-0.5147427916526794,2.730752468109131,,,,,
1.9304720000000088,-111.8722352906655,-13.157465321579478,85.08862419991256,4.081660747528076,-0.37361305952072144,4.060242652893066,,,,,
1.9399660000000267,-95.09070019792763,-10.011262297835923,81.32492283347588,2.535839557647705,0.4893476366996765,5.7526373863220215,,,,,
1.9493009999999913,-76.22224707915471,-3.628656215089109,80.31171460794891,1.4745757579803467,1.7303102016448975,7.260945796966553,,,,,
1.9588209999999435,-56.10001402834475,2.3542248705128075,83.58916145897153,1.2350126504898071,2.6597964763641357,7.433718681335449,,,,,
1.9685080000000426,-36.193959487861505,4.8313953648270775,89.11446294898627,1.3160244226455688,2.6219265460968018,7.145249366760254,,,,,
1.978020000000015,-17.943546022910294,3.9030502631256687,93.41382422720179,0.8467438817024231,2.3418996334075928,6.150862216949463,,,,,
1.9875230000000101,-2.5785065233666242,1.9895781442894316,94.71891269455115,-0.32099780440330505,1.6558963060379028,4.022649765014648,,,,,
1.997037999999975,10.048402984895862,1.1743319253472317,93.57035517514656,-1.8485239744186401,0.45562809705734253,1.265258550643921,,,,,
2.0063729999999396,22.263806539548277,1.9227830885253618,91.48465176283736,-3.2279601097106934,-0.43319422006607056,0.319135844707489,,,,,
2.0158760000000484,36.21674257640861,4.221748665348478,89.78611108463097,-4.813137531280518,-1.0811516046524048,1.6050289869308472,,,,,
2.0253910000000133,52.12395957830151,8.599340285466626,89.22429281491745,-4.70494270324707,-1.3023853302001953,3.423032283782959,,,,,
2.0349009999999907,69.1373825397322,14.491495163860426,89.81575288475806,-3.3702166080474854,-2.178673267364502,7.503671646118164,,,,,
2.0444139999999607,89.47567399380277,18.87362792354589,92.58243218742551,-0.5760502815246582,-0.6576794981956482,7.982660293579102,,,,,
2.0539179999999533,109.3129879469781,19.306050699732186,96.30683232457322,0.03450140357017517,-0.5315332412719727,8.304024696350098,,,,,
2.063502999999969,125.77334283840243,16.411847404388638,96.94240930571665,-0.03558337688446045,-1.04293692111969,7.094257831573486,,,,,
2.073019000000045,140.29430622247244,12.41178985089734,93.25126391090332,-1.0763299465179443,0.1152229905128479,5.812793731689453,,,,,
2.082630999999992,151.5991672571449,9.075650233451391,87.15425360048137,-2.8108437061309814,0.6351137161254883,4.973655700683594,,,,,
2.0921409999999696,159.95028341583563,7.384424201923943,81.09144531470704,-3.677495002746582,0.27035242319107056,2.545527219772339,,,,,
2.1016449999999622,168.2679279143065,6.462476640153368,77.25374417604148,-3.512925386428833,0.5223605632781982,1.8188660144805908,,,,,
2.1111660000000256,176.88987703277755,4.815170405394645,76.59258206077122,-2.6648740768432617,0.5115855932235718,1.7238266468048096,,,,,
2.1207030000000486,-174.821097929615,2.20524869409057,78.27921160940552,-0.854276180267334,-0.254423588514328,1.234795093536377,,,,,
2.130188999999973,-165.7023092090896,-1.4384599423245616,80.29167341088186,1.2246384620666504,-0.825017511844635,1.153979778289795,,,,,
2.139695999999958,-154.2820516415094,-6.003697077025234,80.21110598354895,2.645665407180786,-0.8813306093215942,2.1171629428863525,,,,,
2.149218000000019,-139.17160611459195,-9.74727425579151,76.52376739425101,3.0818192958831787,-0.6096104383468628,3.1349334716796875,,,,,
2.1587200000000166,-118.92035942923084,-9.854328068708687,70.1634232811918,2.6290640830993652,0.7530820965766907,5.611008167266846,,,,,
2.168229999999994,-96.51049288338746,-5.219569293539367,65.04162698665554,2.0009877681732178,2.8434596061706543,8.007107734680176,,,,,
2.1775599999999713,-74.6771626116853,1.4885861146014092,64.80219658967208,1.7196091413497925,3.8377373218536377,7.727809429168701,,,,,
2.1870699999999488,-52.5555551870651,5.90787155869638,69.53256756111152,1.5838732719421387,4.225256443023682,7.386906623840332,,,,,
2.1967799999999897,-30.117386947791704,5.4466425796755065,75.89676637362204,0.7518665194511414,4.408595085144043,7.130178928375244,,,,,
2.206278999999995,-8.15637339490493,1.0221127118410198,79.76134277377118,-0.818818986415863,3.567272186279297,7.001294136047363,,,,,
2.2159769999999526,13.13045931054767,-3.799861405231937,79.33420770947728,-2.694709062576294,2.6044747829437256,6.622844696044922,,,,,
2.2254729999999654,34.97687341095631,-5.726237804629797,75.98609995487158,-3.900668144226074,1.8813271522521973,6.938647270202637,,,,,
2.2348100000000386,56.98377949850635,-3.1320660738889226,73.2393870801466,-4.792931079864502,1.5729788541793823,7.271998405456543,,,,,
2.2441390000000183,78.79934915995803,3.0998439338953085,74.07129215308593,-4.033111095428467,1.1709015369415283,7.772186756134033,,,,,
2.2536420000000135,100.43701289693776,8.485640682995529,79.12911340475631,-1.4277913570404053,-0.04161810874938965,8.171183586120605,,,,,
2.263144000000011,119.95948412041596,9.171634940392838,85.94538830397224,0.06342396885156631,-0.7035438418388367,8.482337951660156,,,,,
2.2727350000000115,135.84749076835624,5.535708241246442,89.484434840999,1.1474754810333252,-0.5188177227973938,6.955432891845703,,,,,
2.282261999999946,147.7245487080054,0.4201658623646321,87.55273349668273,1.3542208671569824,-0.3390332758426666,4.05143928527832,,,,,
2.2919339999999693,156.77624562574118,-3.9016483833184408,81.29349005542535,0.21541248261928558,0.11522561311721802,2.4407808780670166,,,,,
2.3014550000000327,163.4064519269905,-6.020476437774457,73.3628849301934,-1.161270022392273,0.6203056573867798,2.0460193157196045,,,,,
2.310891999999967,167.21389622099747,-6.811349170252894,67.11170988497707,-2.2239573001861572,0.6596120595932007,1.6539969444274902,,,,,
2.320406000000048,169.3678322240159,-7.907638670359113,64.80310255340136,-2.4769489765167236,0.4579455256462097,0.9632542729377747,,,,,
2.329910000000041,170.89820606464514,-9.513500847981184,66.8821330734262,-1.4247376918792725,0.5788393616676331,1.5630862712860107,,,,,
2.3394210000000157,170.8060941676622,-11.374151736322618,72.31808733481907,0.751737654209137,0.349834144115448,1.8698194026947021,,,,,
2.3489459999999553,169.16754196569198,-13.428274565992938,78.96960089336284,3.166935920715332,-0.2770228683948517,1.427449345588684,,,,,
2.3584399999999732,168.1518621350156,-15.622549492632366,84.24031335244972,5.355350017547607,-1.0698057413101196,-0.32239019870758057,,,,,
2.3679630000000316,169.2167462489317,-17.394793931218295,85.72143045776316,6.038387775421143,-0.19125838577747345,0.7668010592460632,,,,,
2.3776579999999967,171.48027892497873,-18.837814219047942,83.27484912241326,5.25534200668335,-0.798355221748352,-0.9692510366439819,,,,,
2.3871639999999843,176.93346507624466,-19.881602380218236,78.60382743573015,3.22001314163208,-0.5502000451087952,-0.8227552771568298,,,,,
2.396669999999972,-174.55208060760697,-19.547659369006194,74.13345215182774,2.0467417240142822,-0.6004303097724915,-0.5447960495948792,,,,,
2.4153159999999616,-150.99535337296643,-16.2463236090926,72.17902608074395,1.9003225564956665,0.6446151733398438,2.6315202713012695,,,,,
2.4248589999999695,-137.6694865443728,-15.43792383383513,75.10062619556798,2.488774061203003,0.8613022565841675,4.047522068023682,,,,,
2.43434000000002,-123.06323529770115,-16.058515521743434,78.65216239686839,2.757474422454834,1.2713444232940674,4.954056262969971,,,,,
2.4438480000000027,-107.68706055445517,-17.418983417253706,81.05092150075775,2.158628463745117,1.4754523038864136,5.262308597564697,,,,,
2.453381000000036,-92.52381279006619,-17.97960084325028,82.02229378114596,1.276265263557434,1.1445598602294922,4.252416133880615,,,,,
2.462882000000036,-77.53513822442441,-16.708456012173965,82.35626141004145,0.2526560127735138,1.0958881378173828,3.005333423614502,,,,,
2.4723920000000135,-63.09107854968818,-13.796908427666073,83.41544586715624,-0.7887076735496521,1.3197189569473267,1.5902079343795776,,,,,
2.481901999999991,-49.4056574306946,-10.534563116584303,86.02955870843854,-1.6296967267990112,1.2181925773620605,-0.23918622732162476,,,,,
2.491416999999956,-34.856463619576694,-8.24251341551514,89.79820884879862,-2.5678977966308594,1.0894789695739746,-1.531792402267456,,,,,
2.5009260000000495,-16.863769063035317,-8.010958650609629,93.79114887293086,-3.8578248023986816,1.4926679134368896,0.20730197429656982,,,,,
2.5106170000000247,4.283673343787671,-9.948264636916159,96.37665842881661,-5.149075984954834,2.489816665649414,5.852509021759033,,,,,
2.52011600000003,26.144712257975854,-12.080408872627904,95.96502327399286,-5.400604248046875,4.052955150604248,7.1124653816223145,,,,,
2.52963299999999,48.66911609570976,-12.344969611059728,92.4958764374547,-2.6303539276123047,4.529782295227051,7.3464884757995605,,,,,
2.5393249999999625,71.11222190202182,-9.317692176958579,89.09176810193159,0.7702453136444092,3.3226141929626465,7.6725053787231445,,,,,
2.5484709999999495,92.83281704698936,-4.831750848467105,89.82696143089662,2.2539334297180176,2.0328712463378906,8.04129409790039,,,,,
2.5579870000000255,114.40270859650977,-2.8624651770062477,93.51153632028095,2.294604778289795,1.5474622249603271,8.404501914978027,,,,,
2.567491000000018,136.07710300420482,-4.703851974282599,95.71408033040393,1.8211082220077515,1.2157928943634033,8.484623908996582,,,,,
2.5770760000000337,158.1066603349519,-9.094886925877296,94.08609110103116,0.17677593231201172,1.3348134756088257,7.426987648010254,,,,,
2.5865969999999834,-178.95441620515905,-12.476537269862215,88.28339955993448,-1.3381788730621338,1.8456008434295654,6.594515800476074,,,,,
2.596284999999966,-155.5973761962578,-11.977579552138353,81.20089245279019,-1.5463309288024902,2.6853809356689453,7.17617130279541,,,,,
2.6058160000000044,-132.93511601408292,-8.790645130025103,76.64050249872804,-0.7244330644607544,3.616091012954712,8.433402061462402,,,,,
2.615316000000007,-111.07072395946484,-5.776422519604866,76.28612046207084,1.6804472208023071,3.9099602699279785,8.349361419677734,,,,,
2.6247449999999617,-89.45050451009644,-5.445798148720905,78.20856366176919,4.249172210693359,3.7550806999206543,7.982503414154053,,,,,
2.6342519999999467,-67.75107153217638,-7.356707585901628,79.11387930452418,4.853810787200928,3.426600217819214,7.616392135620117,,,,,
2.6534540000000106,-27.07009862180533,-8.988133630825464,78.11489952067838,1.9939780235290527,1.8226500749588013,6.043736457824707,,,,,
2.6629590000000007,-11.136789746223384,-6.807254172669356,78.84054200271876,-0.38217422366142273,0.8390746116638184,3.2606654167175293,,,,,
2.6724689999999782,2.36342319733861,-4.485651878570288,81.26344650315481,-1.5898716449737549,0.18991345167160034,1.5673832893371582,,,,,
2.681979999999953,15.180209285981572,-2.7206050279352465,84.29124226015134,-1.7830874919891357,0.13711440563201904,1.3555190563201904,,,,,
2.691320000000019,27.93058606779229,-1.012964352375832,86.56273560947193,-1.627365231513977,0.09414497017860413,1.7945091724395752,,,,,
2.7008299999999963,40.52434164114685,0.45988057014808026,86.57227677618975,-0.9320971965789795,0.0382990837097168,2.1571145057678223,,,,,
2.710329999999999,52.25134825865789,2.246833316103714,83.72363802052999,-0.033954210579395294,0.15831279754638672,3.045758008956909,,,,,
2.7198459999999614,61.86082757292549,5.358054197193431,79.21848221751962,-0.3301064372062683,-0.4194161295890808,3.5311594009399414,,,,,
2.7291759999999385,70.12442970897895,9.247074544052783,73.78921281133505,-1.7535629272460938,-1.1071295738220215,3.252910614013672,,,,,
2.73868200000004,77.86988572845806,12.895189215607989,68.01314331763328,-4.154688835144043,-1.4043347835540771,3.8968470096588135,,,,,
2.7482009999999946,82.95223265992385,16.2936674532213,64.65096848652796,-7.644264221191406,-3.6885976791381836,5.0043487548828125,,,,,
2.7577079999999796,85.5227280587089,17.787658065470957,65.80390628239317,-5.199804306030273,-4.307196140289307,-0.5337072014808655,,,,,
2.767213999999967,88.14510192956661,15.592504838502197,67.87536059654842,-1.920823574066162,-1.4911516904830933,0.3356311619281769,,,,,
2.7767219999999497,87.75753797647234,11.52452104584334,70.67421354832669,-1.420894742012024,-1.245046615600586,-1.1589564085006714,,,,,
2.786256999999978,86.97167602087586,6.842176633550969,73.05839085736332,-1.3815839290618896,-1.0069034099578857,-2.6302406787872314,,,,,
2.7957509999999957,86.63347621040305,2.942309751999066,74.29289947275382,-1.702243685722351,0.08097535371780396,-1.471090316772461,,,,,
2.8052579999999807,84.56816922554178,1.079541733798002,75.41640015081691,-1.9670557975769043,-0.05847090482711792,-2.066099166870117,,,,,
2.814767999999958,82.62644381211152,1.403897259009317,76.45214846460436,-2.3086020946502686,-0.2966533899307251,-2.596789598464966,,,,,
2.8242729999999483,81.27610641419035,3.1888223322972027,76.6300948951898,-2.0568666458129883,0.04506593942642212,-1.5609749555587769,,,,,
2.833793000000014,78.75324210889498,5.381906624881435,76.61859345430275,-1.0206995010375977,-0.5389280319213867,-1.8626104593276978,,,,,
2.8433129999999665,76.12686735231183,6.6775064938637545,78.96869552473488,-0.2012849599123001,-1.1059935092926025,-2.275040626525879,,,,,
2.852807999999982,74.15370256962099,5.9552412488555095,81.75799208543756,0.656764566898346,-0.8489785194396973,-2.030336380004883,,,,,
2.8623229999999467,72.00926651448458,3.055198104489074,84.86552617176169,1.6718058586120605,-0.5879639387130737,-1.8436965942382812,,,,,
2.871833000000038,69.88010229643945,-1.246646347829643,88.65242402296204,2.105412721633911,-0.48549509048461914,-1.7884337902069092,,,,,
2.881349,68.21166707515017,-5.855069635532313,92.56317855657518,2.14512038230896,-0.1762087345123291,-0.9710121154785156,,,,,
2.891040999999973,66.18831793407648,-9.453732726006965,95.63615450871438,2.0327961444854736,-0.1808173656463623,0.07258659601211548,,,,,
2.9003609999999753,64.32307551569735,-10.860405082058426,97.61685274518015,2.352889060974121,-0.5843890905380249,1.0505586862564087,,,,,
2.909870999999953,62.98377686015162,-9.631623043609238,98.94160286959467,2.570923089981079,-0.6310582756996155,2.0342440605163574,,,,,
2.9193910000000187,61.34945312112654,-6.727819012530353,99.4894753870044,3.1840438842773438,-0.7606823444366455,2.903075695037842,,,,,
2.9288980000000038,59.46339488206834,-3.3286991475548366,99.71097288596297,4.141847133636475,-1.0662440061569214,3.3331339359283447,,,,,
2.938400999999999,58.03780851180731,-0.6066453586331879,100.44092686208485,4.526093006134033,-1.03792142868042,3.426666736602783,,,,,
2.9479149999999663,56.527542739989705,0.10547797222643604,101.59164914642884,4.376518726348877,-0.6731047630310059,3.5169200897216797,,,,,
2.957430000000045,54.883428919610054,-1.126404370391165,103.45794914609655,3.593229055404663,-0.8302751779556274,2.404080867767334,,,,,
2.967290000000048,54.45165103564695,-3.660251590271112,105.86148650502082,2.212124824523926,-0.22027087211608887,2.4109585285186768,,,,,
2.9768149999999878,53.81213584676018,-6.706318219202946,107.97260271718525,0.8322570323944092,0.14808404445648193,2.112450361251831,,,,,
2.9863209999999754,52.79477407590146,-9.11814204348401,109.46885913015406,-0.2667292058467865,-0.10881876945495605,0.9415839910507202,,,,,
2.9958339999999453,52.86422363212909,-10.112421449123262,110.1722950894156,-0.9287486672401428,0.12408620119094849,0.2789045572280884,,,,,
3.0053530000000137,53.35982588432587,-9.57611280950781,109.78856158753786,-1.073480486869812,0.3719385266304016,-0.04804927110671997,,,,,
3.014503999999988,53.25968902173612,-7.879340069894489,108.44473958576702,-0.8775274157524109,0.11681920289993286,-0.9156426191329956,,,,,
3.024008999999978,52.62994364572173,-5.851048626640619,106.45811136831217,-1.0424258708953857,0,-1.400763750076294,,,,,
3.033510999999976,50.87321801884173,-4.593132608715691,103.91517829029192,-1.8225675821304321,-0.04860121011734009,-1.4245469570159912,,,,,
3.043034000000034,47.450570339100615,-4.847052583074881,101.1222769305499,-3.252192974090576,0,-0.7830318808555603,,,,,
3.0527150000000347,41.700273624504874,-7.396747905873238,100.57628368066248,-4.729738712310791,0.04617154598236084,-0.8853673338890076,,,,,
3.062220000000025,35.29762129295061,-12.44823884883779,106.7137822942399,-6.60394811630249,2.5819172859191895,0.6554614901542664,,,,,
3.071735999999987,25.34330228979446,-13.67734003192061,115.13290390064245,-6.228122234344482,4.561560153961182,1.417424201965332,,,,,
3.0812479999999596,12.208028416501856,-9.032817179983624,118.31523496045523,-4.970308780670166,3.971400737762451,0.9272713661193848,,,,,
3.0905870000000277,-0.7938828101682731,-4.801067399154212,115.92427498721045,-2.9937283992767334,2.651949405670166,1.0034358501434326,,,,,
3.1002710000000206,-13.615438870663242,-3.165338160054807,110.42885125749407,-0.7919114828109741,3.674464464187622,3.872558355331421,,,,,
3.1096149999999625,-29.65938994151405,-4.471891158880786,104.99670067171034,0.39018404483795166,3.1897411346435547,2.0975499153137207,,,,,
3.1191089999999804,-45.792079114475634,-8.759839121448996,103.47134859558246,1.2302948236465454,1.5014724731445312,0.7685946822166443,,,,,
3.128798999999958,-59.72610741975008,-12.371321508125451,106.15155534714054,1.3222403526306152,1.8253543376922607,2.743089199066162,,,,,
3.138402000000042,-73.70525538555265,-12.74556541131844,110.0619842198651,0.48259812593460083,2.100292444229126,2.0433661937713623,,,,,
3.147915000000012,-86.73820698169749,-10.290952960762148,113.11911014716341,-0.6119346618652344,1.5513523817062378,-0.10373306274414062,,,,,
3.1574190000000044,-96.82059268794474,-6.698871112459597,114.18104024211543,-0.7148177623748779,2.193317413330078,0,,,,,
3.1669279999999844,-105.69810331400033,-4.1951483552747435,113.46532725931999,0.1114773377776146,2.4116415977478027,-1.0292154550552368,,,,,
3.1763499999999567,-113.4735732335556,-4.179639773888042,110.92023868259568,1.5579355955123901,1.637630581855774,-1.9344909191131592,,,,,
3.18587500000001,-119.54829189963577,-6.7558077274604535,108.65624843101146,4.248862266540527,2.2208075523376465,-0.66921067237854,,,,,
3.1953770000000077,-126.61251157016683,-11.84464605325719,108.40144267918521,7.078657150268555,1.546336054801941,-1.5389360189437866,,,,,
3.20488499999999,-133.64240328364556,-17.635167114443526,111.50965882970985,7.126038074493408,1.6440699100494385,-1.5646381378173828,,,,,
3.2143929999999727,-141.88845838010528,-20.603279632809052,117.95556317462335,6.078598499298096,1.3227856159210205,-1.1127432584762573,,,,,
3.223899999999958,-150.4469830837528,-20.167386393969615,124.63416205992756,4.603437423706055,1.197399616241455,1.2871372699737549,,,,,
3.2334319999999934,-158.37060163028616,-18.94582964455641,127.92872101091939,2.1437764167785645,0.36360132694244385,0.43908581137657166,,,,,
3.2429550000000518,-164.0240617193335,-17.04463930607863,127.71366240901258,0.7721230983734131,0.3680041432380676,0.8356911540031433,,,,,
3.2525210000000015,-168.80014603747262,-15.195076324522,124.58370717645276,0.4374101459980011,1.0068223476409912,1.8484506607055664,,,,,
3.261959000000047,-173.8528104851827,-15.301961020093474,119.61033503282314,0.559804379940033,0.8495626449584961,0.7654468417167664,,,,,
3.2716460000000325,-177.4843218107352,-16.84105358584707,114.43218842987616,0.40781766176223755,0.7795721292495728,-0.07187235355377197,,,,,
3.2811400000000503,179.97721916904234,-17.75856126457637,110.67092603820028,0.47083666920661926,1.0839576721191406,0,,,,,
3.2906580000000076,176.8118569814333,-17.66541136120175,109.32534073693306,0.4133390188217163,0.8059516549110413,-0.5029681324958801,,,,,
3.3001769999999624,173.8191702623103,-16.20230556455418,110.29863428517108,-0.4442671537399292,0.35715925693511963,-1.4729282855987549,,,,,
3.3096970000000283,172.44559476819447,-12.58471037553306,112.48540275326827,-1.4293279647827148,0.2258787453174591,-1.0257647037506104,,,,,
3.3190049999999474,173.0626786739519,-7.840660671469383,114.71530983589045,-2.956226110458374,-0.316433846950531,-0.17804574966430664,,,,,
3.328518000000031,175.6446030527918,-4.140993089769369,115.75126064553301,-6.574886798858643,-2.1272165775299072,0,,,,,
3.338045999999963,179.54610329579924,-3.1067583905522786,116.70239722327118,-8.040861129760742,-2.3439579010009766,1.7788078784942627,,,,,
3.3475449999999682,-178.15663954130954,-4.316534178546103,121.38108679491168,-4.868237495422363,-1.8706700801849365,0.6023386120796204,,,,,
3.357248000000027,-175.6530112969897,-6.2431540750987615,126.10101563961773,-0.5473304390907288,-1.7322853803634644,-0.3320087790489197,,,,,
3.366569000000027,-171.87277979918795,-8.151579207094295,126.97583663455313,0.1557384878396988,-1.8075709342956543,0.6385983228683472,,,,,
3.3762629999999945,-165.96831853386252,-8.22790254375115,124.02527610819531,-0.19108539819717407,-1.5734539031982422,-0.5074437856674194,,,,,
3.385601999999949,-156.98387922289282,-5.2731264124114245,119.50335783904339,-0.9974841475486755,0.22766947746276855,1.2521522045135498,,,,,
3.3951789999999846,-148.3109130472296,-1.0285954289202708,116.80157976189786,-2.092214345932007,1.225766658782959,2.3501996994018555,,,,,
3.4046039999999493,-140.7340974930072,2.4818731052043717,116.97200960358636,-2.706287145614624,1.0205018520355225,1.2114022970199585,,,,,
3.4141140000000405,-131.94414353017305,3.750198948944134,120.38208885145376,-2.095144510269165,1.612757682800293,1.4405452013015747,,,,,
3.4237090000000308,-123.10346975707155,1.2658512751629216,124.59387574284166,-0.9363172650337219,1.6226792335510254,1.8890008926391602,,,,,
3.4331449999999677,-115.22659096880074,-4.234116389053502,127.89196418227121,0.24133828282356262,0.8070772886276245,1.0693219900131226,,,,,
3.44265699999994,-107.38317652134803,-10.14945643264058,129.30851638564874,1.5489221811294556,0.3776182532310486,0.6097930669784546,,,,,
3.4523430000000417,-99.53574404844522,-14.086694683292963,128.3550983852518,2.822214365005493,0,0.07726926356554031,,,,,
3.4616790000000037,-91.40639108373244,-14.403242659348297,125.43376734117051,3.7084295749664307,-0.11176031827926636,-0.77574223279953,,,,,
3.4806770000000142,-72.40531826478986,-4.612111011114867,122.42680380415351,5.419753551483154,1.0192362070083618,-0.7724847197532654,,,,,
3.4902059999999437,-61.791209266254,1.0343568588043566,125.03180962447313,5.19111442565918,0.7734326720237732,-0.8804917931556702,,,,,
3.4997110000000475,-49.43714442809206,3.0765867955073873,129.53379650652585,4.465734958648682,0.6214991211891174,-0.3234834671020508,,,,,
3.509217000000035,-35.17365125553456,0.5588811818411016,133.83281578914003,4.120431900024414,1.1003921031951904,1.8294023275375366,,,,,
3.5189080000000104,-21.79636077813216,-3.8013274774427157,135.29771649787344,2.4485411643981934,1.2065527439117432,3.7048025131225586,,,,,
3.52843299999995,-8.896368780660865,-8.344194983172184,133.55200086341608,1.9360480308532715,-0.18989607691764832,1.873676061630249,,,,,
3.5379349999999476,7.159327048975568,-11.36487573226445,129.95124528105967,1.6661643981933594,0.9900859594345093,3.5769333839416504,,,,,
3.547456000000011,21.57423639645775,-11.440086496362433,126.47752056598061,1.3120523691177368,0.1382349133491516,3.672010898590088,,,,,
3.556954000000019,33.70329533218233,-10.034048589247462,124.77805025771528,1.3088593482971191,-1.2642321586608887,1.2756494283676147,,,,,
3.566455000000019,46.354423743944885,-9.312540810045107,125.0081580944809,1.6382418870925903,-0.6340708136558533,1.9280751943588257,,,,,
3.5759709999999814,57.3060458105378,-9.988486227533418,126.43333241296804,1.8444911241531372,-0.6479704976081848,2.272602081298828,,,,,
3.585297999999966,66.38454075077334,-12.120098057738893,127.5554779042649,1.5510096549987793,-1.211665153503418,0.5120352506637573,,,,,
3.5949940000000424,75.77804669169856,-15.030111512261444,126.74990286026731,1.148524522781372,-0.5945243835449219,0.7597402334213257,,,,,
3.6045030000000224,83.81184019109882,-17.111979598458642,123.91979500752792,0.14025837182998657,-0.30065202713012695,1.4137557744979858,,,,,
3.6138489999999592,89.28637383047496,-17.131799933584944,119.9265781538541,-1.4111806154251099,-0.7226965427398682,0.10846669226884842,,,,,
3.6233579999999392,93.53606478055428,-14.785203543980739,115.41109186796074,-3.179560422897339,-0.5349844098091125,-0.10084999352693558,,,,,
3.6328660000000355,95.79914702630751,-10.449555372859269,110.82012187800865,-5.4612321853637695,-0.548312783241272,0.1355392038822174,,,,,
3.6423630000000458,95.70561144042335,-7.525688661040501,107.56134474316858,-7.1956400871276855,-2.449131965637207,-1.125523567199707,,,,,
3.651875000000018,94.99675171509037,-8.795810256587169,106.89973615995957,-6.25941801071167,0.2763807773590088,0.6958966255187988,,,,,
3.661385999999993,90.4359144167809,-9.434162304594016,107.78190366717386,-4.385042667388916,-0.5247608423233032,-2.456087112426758,,,,,
3.6708939999999757,86.60168429211633,-9.36525837586302,109.13322611631494,-4.9567670822143555,0.2494264841079712,-0.7933409214019775,,,,,
3.6804180000000315,81.5807750725555,-8.452783976256773,109.24583514071877,-4.2470808029174805,1.5975451469421387,0.7109402418136597,,,,,
3.689926000000014,73.11856701029082,-7.094567478928278,111.0550769944325,-3.430081367492676,-0.10927766561508179,-1.5555126667022705,,,,,
3.699431000000004,66.3786773380766,-5.726748263538295,113.88246145781244,-3.094257116317749,-0.6036009788513184,-0.936066746711731,,,,,
3.709131999999954,60.516139496560626,-4.577169077147736,116.71942978724068,-1.9623457193374634,0.6944133639335632,1.0039598941802979,,,,,
3.718650000000025,51.98976166977925,-3.3833906383239887,120.16989805529795,-0.3867710530757904,0.0918533205986023,-0.1250973343849182,,,,,
3.7279610000000503,44.1325624290222,-2.5245684324510425,124.35283587332748,0.48880186676979065,-0.4353330731391907,-0.8831744194030762,,,,,
3.737659000000008,37.97496991277838,-2.5709588949410307,128.56923383436043,1.3485801219940186,0.5115853548049927,0.40704989433288574,,,,,
3.747162000000003,31.18927090486149,-2.7745127648496757,132.74006945933567,2.1665754318237305,0.4128916263580322,0.09766983985900879,,,,,
3.7564949999999726,25.34803128807198,-2.4014488926431623,136.63974252317075,2.081587076187134,0,-0.44913971424102783,,,,,
3.766187999999943,21.44864559047844,-2.0124201630203706,139.17714393551165,1.971990942955017,0.3310648798942566,0.03889429569244385,,,,,
3.7755039999999553,18.88378069144625,-1.7235772497133004,139.8913261314421,2.349134683609009,-0.15351296961307526,0,,,,,
3.7850160000000415,18.429062989553863,-1.1190108920215338,139.43933549325882,2.754730224609375,-0.26099738478660583,0.5287466645240784,,,,,
3.794536999999991,19.126258488732,-0.5952761687069645,138.41821634963475,3.5288195610046387,-0.8118108510971069,0.6047652363777161,,,,,
3.8040419999999813,21.360798864772644,-0.5067116040920502,137.69804372967621,4.6637468338012695,-1.3952382802963257,0.7785789370536804,,,,,
3.8135670000000346,24.97436394594127,-0.9687076283586876,138.29357126752652,5.329847812652588,-1.7230747938156128,1.3398406505584717,,,,,
3.82306600000004,28.79054316930943,-2.8984074075401844,140.37041921601872,4.810105800628662,-1.7177836894989014,1.1096773147583008,,,,,
3.8325810000000047,32.130732680779836,-6.4130204906857005,142.7759853117625,3.288083553314209,-1.1082475185394287,1.5694910287857056,,,,,
3.8420879999999897,34.866926837205185,-10.037912313792429,144.19605242910174,1.657956838607788,-1.4188601970672607,0.6947560906410217,,,,,
3.851792000000046,38.92466288964003,-12.808861994245705,143.82569314902491,0.7889595031738281,-0.8259116411209106,1.1738357543945312,,,,,
3.861293000000046,42.51405711579256,-13.917772668607313,141.96258123544004,0.3111457824707031,-0.5617412328720093,1.6289193630218506,,,,,
3.870627000000013,44.55250714762992,-13.170145821376341,139.6628587099119,0.2565007507801056,-1.2711483240127563,0.5181533694267273,,,,,
3.880141999999978,46.37048006367916,-11.488342152969189,137.64022803192245,0.42867791652679443,-1.3366453647613525,0.49658799171447754,,,,,
3.8896409999999833,47.002337004998054,-9.96087120343418,136.22166219740038,0.6242344379425049,-1.2510699033737183,0.6818760633468628,,,,,
3.899153999999953,45.93332233952311,-9.319614825946514,135.68043580678022,0.7487399578094482,-1.4898638725280762,0.09797614812850952,,,,,
3.9088540000000194,44.28125753273809,-9.825181977840913,135.98659120527498,0.3022938370704651,-0.853632926940918,0.4963265657424927,,,,,
3.918360000000007,41.18629348468608,-11.291953974827921,136.59639320073893,-0.5256584286689758,-0.06382817029953003,0.8909391164779663,,,,,
3.9278659999999945,36.291858534082614,-13.06572303829355,137.0442366419131,-1.7454503774642944,0.3616236448287964,0.6473033428192139,,,,,
3.9373829999999543,30.62863039489129,-14.518708886677086,136.88377034732994,-3.3924598693847656,1.452027678489685,1.7842234373092651,,,,,
3.9467089999999416,22.571306308178475,-15.432388113877266,135.62261807158802,-4.962405204772949,2.2194786071777344,2.5617408752441406,,,,,
3.9562069999999494,11.960471422753635,-16.253776032050673,135.06063065864325,-4.638758659362793,1.430526614189148,1.778123378753662,,,,,
3.9657379999999876,0.66847084852946,-15.906906678143825,138.2867275697128,-4.839603424072266,2.5954205989837646,3.1286113262176514,,,,,
3.9752469999999676,-11.18437622679796,-12.911844583577707,140.41054988481628,-4.601046562194824,2.7392961978912354,3.071840763092041,,,,,
3.984760000000051,-22.567095542126342,-9.79380962739634,139.67582010133978,-3.859074115753174,3.5017330646514893,4.0419464111328125,,,,,
3.9942650000000413,-35.29091831563235,-8.593313310884993,136.74850093489673,-2.172093152999878,3.074920892715454,3.1243884563446045,,,,,
4.003770000000031,-47.74055783394066,-9.416078417783012,133.41858418771025,-1.0673068761825562,2.1258296966552734,1.8083996772766113,,,,,
4.013292999999976,-59.02269390550582,-11.786240640109618,131.85792496499226,-0.3647838830947876,2.0480082035064697,1.8437418937683105,,,,,
4.022799999999961,-70.28178836584905,-14.146193892588547,132.77571690413225,0.1996699720621109,1.603853464126587,1.2156274318695068,,,,,
4.041838999999982,-89.08291674534239,-13.539774818930125,137.52708976351565,-0.2943906784057617,1.490783929824829,0.8592563271522522,,,,,
4.051400999999942,-96.67913418445309,-11.008215133482219,139.36773232140402,-0.44808265566825867,1.5962448120117188,0.12252231687307358,,,,,
4.060862000000043,-102.81970507942083,-8.454650134877637,140.39314660509442,-0.25966525077819824,1.5405538082122803,-0.6049841642379761,,,,,
4.070351999999957,-107.12411639054899,-6.957636965955561,140.22351139139215,0.17422109842300415,1.6744639873504639,-0.8540573120117188,,,,,
4.079863000000046,-110.45367764900351,-6.916994110741761,139.88717410860005,1.186061978340149,1.5793039798736572,-1.3238191604614258,,,,,
4.089373000000023,-112.98168635477408,-8.281448066362833,139.69668968475597,2.8284645080566406,1.1668307781219482,-1.7533631324768066,,,,,
4.098883999999998,-114.12448969833049,-10.747170420482917,139.34981925431774,4.494956016540527,1.1543761491775513,-1.6584113836288452,,,,,
4.108382000000006,-114.80060409293584,-13.258966055658911,139.71893924557475,5.683745861053467,1.0287901163101196,-1.5926527976989746,,,,,
4.117901999999958,-115.25763964047592,-14.77486856103436,140.9544344254506,5.561425685882568,0.9747961163520813,-1.1215927600860596,,,,,
4.127413000000047,-115.67329723850793,-15.100903349757724,142.3993586488634,4.1731743812561035,1.2159144878387451,-0.336566686630249,,,,,
4.136921000000029,-116.18580669923969,-14.945435355365968,143.3414783357987,2.5812575817108154,1.095157265663147,-0.3660731017589569,,,,,
4.146432000000004,-115.74917563383839,-14.858941505147175,143.91987360161778,1.3331938982009888,1.0911723375320435,0.05082327127456665,,,,,
4.155945999999972,-114.71692648361936,-15.176564479305394,144.31860482169904,0.4738340675830841,1.2993316650390625,0.6740092039108276,,,,,
4.165457999999944,-113.75934332673107,-16.258370002073125,144.08547893056314,0.2772761285305023,0.728848934173584,0.5059704184532166,,,,,
4.174969000000033,-111.43428283754504,-17.911652377174704,143.1772321851242,0.2084302306175232,0.6883575320243835,0.6108952760696411,,,,,
4.18447900000001,-108.95880924633401,-19.653824047817793,142.10125635208948,0.8159656524658203,0.7379552125930786,1.2418689727783203,,,,,
4.194166999999993,-107.33827375112234,-21.123848818564813,140.7488637736034,1.4865597486495972,0,0.42286217212677,,,,,
4.203681999999958,-105.17003974116928,-21.81352994036588,139.24223675292293,1.4287419319152832,-0.13063466548919678,0.2431544065475464,,,,,
4.213182999999958,-102.84134260559198,-21.36027789937972,138.54655545509087,0.9581094980239868,-0.08617085218429565,0.13304397463798523,,,,,
4.222725999999966,-100.58792610334528,-19.908470579036557,138.944832964013,0.04879114031791687,-0.025980830192565918,0.5238960385322571,,,,,
4.232039999999984,-98.05188673837642,-17.997618817368583,139.84838159113912,-1.3404465913772583,0.053282201290130615,0.525852620601654,,,,,
4.241544999999974,-94.86540054253037,-16.167202984966412,141.00939159200868,-2.9056382179260254,0.3026542067527771,0.8757423758506775,,,,,
4.2510599999999386,-91.037763431088,-14.858084148372244,142.41611079100883,-4.246095657348633,0.1437901258468628,0.5685322284698486,,,,,
4.260556999999949,-85.25389742574698,-14.447445780027063,143.30466992159555,-4.937970161437988,0.6285992860794067,1.4561744928359985,,,,,
4.2700700000000325,-78.67999096570433,-14.872868443462655,142.71104741476051,-4.644064903259277,0.3407552242279053,1.6596132516860962,,,,,
4.27957200000003,-71.40708982987744,-15.407739447112204,141.2226382199094,-3.64780592918396,-0.17815637588500977,1.3635231256484985,,,,,
4.28909299999998,-62.75184605379945,-15.091689041729627,139.80390720017934,-2.6772143840789795,-0.32832831144332886,1.6352510452270508,,,,,
4.2985969999999725,-53.07654491624309,-13.605459652658531,138.92436124190206,-2.246286153793335,0.09255450963973999,1.889758825302124,,,,,
4.308283999999958,-43.758988912678504,-11.679066186931758,139.2402433852505,-2.070218563079834,0.1663784384727478,1.7478725910186768,,,,,
4.317800000000034,-34.81847788907891,-10.122126301238676,140.6754735499992,-1.6704317331314087,0.16338151693344116,1.332551121711731,,,,,
4.3273209999999835,-25.950213503049696,-9.096694014728163,142.28800892728157,-1.4670833349227905,0.37856462597846985,1.3405680656433105,,,,,
4.336834999999951,-17.781037075104543,-8.733726619520676,143.5413676239272,-1.3188104629516602,0.28847357630729675,1.0568044185638428,,,,,
4.3463389999999436,-10.485087229557761,-9.075060200574507,144.17311466745667,-0.8347501754760742,-0.04898689687252045,0.8090470433235168,,,,,
4.355854000000022,-3.829858893158386,-9.54743718919055,144.16255240429535,-0.4542025923728943,-0.32812315225601196,0.5606076121330261,,,,,
4.365362000000005,2.105374920114202,-9.835677557843042,143.99334361674647,-0.18247075378894806,-0.4966629445552826,0.5206320285797119,,,,,
4.374865999999997,6.893436150427347,-10.098792227570007,144.198064537737,0.15386956930160522,-0.77000892162323,0.36050987243652344,,,,,
4.384379999999965,10.61787597251561,-10.362010467981262,145.12699387941365,0.4675197899341583,-0.9715090394020081,0.24419355392456055,,,,,
4.393883999999957,13.452825821335187,-10.558295116234518,146.8037057435905,0.7188833951950073,-0.897007405757904,0.2608245611190796,,,,,
4.412909000000013,16.26232402908094,-10.25338612490846,151.75735128479243,1.907034993171692,-0.9673327207565308,0.5160402059555054,,,,,
4.422227000000021,17.218952505403607,-9.230245421774134,154.33842977198267,3.1705169677734375,-0.8724682927131653,0.4015018939971924,,,,,
4.43175599999995,18.031572094364225,-7.921461512662084,156.3370902045604,4.755215644836426,-1.1411266326904297,-0.1662607192993164,,,,,
4.441252999999961,18.95681621927944,-7.297191179275467,157.3304450330864,5.986514091491699,-1.0847978591918945,0.031679630279541016,,,,,
4.450748999999973,19.46719255944731,-7.76979489921248,157.3823010317824,5.159952640533447,-1.1145033836364746,-0.7085854411125183,,,,,
4.4602820000000065,19.365753528679793,-9.811502702647521,156.74563402301692,3.8031973838806152,-0.8965619802474976,-0.3863333463668823,,,,,
4.4697909999999865,18.388493306485763,-11.816122435154282,156.33581194606194,2.588324785232544,-0.654822587966919,-0.21791166067123413,,,,,
4.479290999999989,16.74669124260543,-13.18705538347521,156.37385666315774,1.407160997390747,-0.3559689521789551,-0.6106035709381104,,,,,
4.488987999999949,14.088478542175439,-14.50876155519265,156.50607865697015,0.6517642736434937,0.09302303194999695,-0.1941729187965393,,,,,
4.498494000000051,10.076642178252982,-15.265968099477217,156.7679578526714,0.6519108414649963,0.0665004551410675,-0.05790621042251587,,,,,
4.508024999999975,5.98697396756886,-14.855937495920042,157.20440081582825,0.4119006097316742,0.4078224301338196,-0.4761469066143036,,,,,
4.51753199999996,1.8258628000103712,-13.952009462803007,157.48684132138285,0.4879531264305115,0.67689049243927,-0.39263713359832764,,,,,
4.526880000000006,-2.0745174971652616,-13.00366820709455,157.4238395813457,0.7217137217521667,0.566739022731781,-0.6752490997314453,,,,,
4.536568999999986,-4.8935083912533415,-11.960042054271673,156.97185271493558,0.398160457611084,0.7701537609100342,-0.3988327383995056,,,,,
4.546064999999999,-7.249115039598655,-11.364998943952031,156.12912287638264,-0.22337383031845093,0.870719850063324,-0.07286924123764038,,,,,
4.555394999999976,-9.326152402314555,-11.50863196330375,155.07974269238179,-0.8914655447006226,0.6777014136314392,-0.17728841304779053,,,,,
4.564910999999938,-10.72783151115291,-11.625996403695103,154.06325533759747,-1.5786263942718506,0.6209772825241089,0.4004543423652649,,,,,
4.574403999999959,-11.893961642942037,-11.12471773846938,153.29865155255868,-2.548480272293091,0.4915723204612732,0.42049211263656616,,,,,
4.583910999999944,-13.059814698536234,-10.380253784852323,153.11680516361224,-3.15985369682312,0.3000856339931488,0.5751919746398926,,,,,
4.593436999999994,-14.190994399968504,-9.073616589364192,153.4521635734845,-3.496765375137329,0.1476588249206543,1.1230807304382324,,,,,
4.602942999999982,-14.968688226784836,-6.923126542198827,154.0994371697059,-4.1105523109436035,0,0.7971298694610596,,,,,
4.612456999999949,-15.208402083103056,-4.863806403756541,154.97715971579643,-4.1926164627075195,0.18210643529891968,1.5176165103912354,,,,,
4.621966000000043,-15.347186784946059,-2.993305435717586,155.78268739671472,-3.933582067489624,0,0.46152448654174805,,,,,
4.631470000000036,-14.403803477620574,-1.82587518779106,156.54530364172314,-3.6218676567077637,-0.0807628482580185,0.18415933847427368,,,,,
4.640985999999998,-12.395418450388869,-1.547206638611633,157.06749538529127,-2.808872938156128,0.2509114146232605,0.6719359159469604,,,,,
4.65050199999996,-10.293322753813387,-1.693361483898651,157.03847068616702,-1.9915854930877686,0.04849834740161896,-0.06917363405227661,,,,,
4.660190999999941,-7.670000275906217,-2.273148443413535,156.64801927262081,-1.401225209236145,0.1295972317457199,-0.11307299137115479,,,,,
4.669708000000014,-5.278285447888059,-3.3349983786281903,156.07910378720965,-0.7341150641441345,0,0.02976316213607788,,,,,
4.679232999999954,-3.2048042201844544,-4.384570532439391,155.61311936165208,-0.32614296674728394,-0.28165197372436523,-0.21177661418914795,,,,,
4.688736999999946,-1.0512053346924433,-5.3094662476137,155.56808391201668,-0.12118048965930939,-0.28646960854530334,-0.035148441791534424,,,,,
4.6982510000000275,0.8589118899917279,-6.285071422103298,156.0724640525053,0.2649494409561157,-0.3914077579975128,-0.15035682916641235,,,,,
4.707761000000005,2.723161042137926,-7.132011811028339,157.11252351228555,0.7053134441375732,-0.39196377992630005,-0.42113953828811646,,,,,
4.71707200000003,4.548482920290572,-7.785345107481474,158.4974773612311,1.149543285369873,-0.27824532985687256,-0.5442880392074585,,,,,
4.726583000000005,6.0793808910393015,-8.402992722909865,159.8919809734988,1.8205955028533936,-0.17173372209072113,-0.466630756855011,,,,,
4.736086,7.020567307699964,-8.88139763021455,160.99525202689767,2.881539821624756,0.13238728046417236,-0.2553933262825012,,,,,
4.745601999999963,6.630875173890883,-9.04723100626416,161.35067191248535,3.9713099002838135,0.4372864365577698,-0.5290247201919556,,,,,
4.755104999999958,5.222532858966172,-9.649681344021896,160.40677582510992,4.875192165374756,0.8080909848213196,-0.771635890007019,,,,,
4.7646049999999605,2.4148111211987104,-11.06722020294768,158.05129966391294,4.504105567932129,1.6705108880996704,-0.35316574573516846,,,,,
4.774135000000001,-2.1748971053231396,-13.326760102025043,154.78380570496583,3.8091609477996826,1.0539577007293701,0.13520455360412598,,,,,
4.783820999999989,-7.504197012575873,-15.82451832896366,152.24013124302672,2.774580955505371,1.7649669647216797,2.0845253467559814,,,,,
4.7933289999999715,-17.09232337267547,-18.096043626655675,151.31073807292398,1.7564741373062134,2.7720987796783447,3.3255271911621094,,,,,
4.80284800000004,-30.892154983212915,-19.3564899673311,151.88740865637953,0.8469703197479248,2.058115005493164,2.499394178390503,,,,,
4.812174000000027,-44.740971858060206,-18.789329981454927,153.14107545344066,0.3719954490661621,2.5702803134918213,3.909259796142578,,,,,
4.821687999999995,-59.28271023985581,-16.6140324406122,153.8751069817765,-0.09297606348991394,3.3791167736053467,3.700338363647461,,,,,
4.831195999999977,-74.22579042569535,-13.887136390312072,153.78178216743666,-0.2758867144584656,2.4186782836914062,1.174250841140747,,,,,
4.840790999999967,-86.44872199081487,-11.355030565417318,153.09722131532888,-0.5372312068939209,2.1673343181610107,0,,,,,
4.85020899999995,-96.75285209922295,-9.578643890836151,152.35350537592254,-1.1484323740005493,2.299104690551758,-1.8918697834014893,,,,,
4.859732000000008,-105.9382763244,-8.571559189196657,152.45169926042348,-1.7947373390197754,1.534652590751648,-5.024738311767578,,,,,
4.869240999999988,-112.39226020311023,-7.88115713067007,153.6298611140928,-2.466974973678589,1.2197425365447998,-5.982352256774902,,,,,
4.878738999999996,-116.74044318227365,-7.399348775806113,155.17446462212382,-3.5322318077087402,1.4783419370651245,-5.103965759277344,,,,,
4.888254999999958,-120.29011874175411,-7.092301936037869,156.27758381003474,-4.45996618270874,0.8683587312698364,-5.292483806610107,,,,,
4.897762999999941,-121.44387782463039,-7.143642996644399,156.18578996120286,-4.4564642906188965,1.2764620780944824,-3.5212924480438232,,,,,
4.907281000000012,-121.13344550767488,-7.976755908974584,154.6530944630788,-3.3777732849121094,1.3068954944610596,-2.734360694885254,,,,,
4.916794999999979,-119.12759361398416,-9.80665060390754,152.3943878994863,-2.41286301612854,1.5840027332305908,-1.3705520629882812,,,,,
4.9263109999999415,-116.4278104153351,-12.426757921598293,150.6674714302202,-1.0103700160980225,1.7219512462615967,-0.3941352367401123,,,,,
4.935807999999952,-113.65149383972965,-15.412908384946444,150.05328244774648,0.48937082290649414,1.328144907951355,-0.4412711262702942,,,,,
4.945316000000048,-110.00615282004672,-18.586990401872825,149.9725603909438,1.045856237411499,1.291823148727417,0.23927909135818481,,,,,
4.95483999999999,-106.04210441664263,-21.52708116989572,150.11728491816203,0.9302647113800049,0.9914368391036987,0.4278210997581482,,,,,
4.96436099999994,-101.67482486505273,-23.75006759128369,150.562604589613,0.20512020587921143,0.727622926235199,0.9162392616271973,,,,,
4.973865000000046,-96.66282238759116,-25.175770803329904,150.75867369428454,-0.4038844704627991,0.7082436084747314,1.8986866474151611,,,,,
4.983371000000034,-91.30030609216772,-26.023714071890943,149.84858406491264,-0.9081729650497437,0.8810510039329529,3.026542901992798,,,,,
4.992873000000031,-86.59167807332507,-26.55578925013292,148.04449295744016,-0.5575836896896362,0.7617161273956299,3.8021080493927,,,,,
5.002370000000042,-82.66045444319283,-27.013473000288585,146.0089699897249,0.8795136213302612,0.8593350052833557,5.07713508605957,,,,,
5.0118870000000015,-79.98543051638292,-27.52708714248809,143.60582046560395,2.6402933597564697,1.1235547065734863,5.987844944000244,,,,,
5.021403999999961,-79.33913850853558,-28.148958051946362,141.34757440167772,4.21204948425293,1.2314584255218506,5.969671249389648,,,,,
5.030910999999946,-80.86265645881151,-28.913314603552504,140.48728101424373,4.925240993499756,0.7692151665687561,4.598104000091553,,,,,
5.040437999999995,-83.5830431582302,-29.432574693563936,141.80311885092422,4.304879665374756,1.1600561141967773,5.096541881561279,,,,,
5.049946999999975,-87.68351422590432,-29.296201541185802,144.1531363898742,2.4457242488861084,0.9977779388427734,3.635573148727417,,,,,
5.059456999999952,-92.38024755968841,-28.29235065246268,147.43116925009662,0.9826982021331787,0.895815908908844,3.2132697105407715,,,,,
5.068957999999952,-97.13056448007275,-26.371041353562678,150.3912029779233,-0.5981261134147644,1.0918984413146973,2.4504733085632324,,,,,
5.078551999999945,-102.04342508987888,-23.78627998338729,152.22003037144444,-1.5188308954238892,1.0543370246887207,1.1552091836929321,,,,,
5.097496999999976,-110.8439524738622,-17.582239550538265,153.3752380655033,-2.1750924587249756,1.2598657608032227,-1.768318772315979,,,,,
5.107002999999963,-114.57098708135368,-14.523057507892595,153.51658386494526,-2.314541816711426,1.1554020643234253,-4.345839977264404,,,,,
5.116508999999951,-117.29551213820342,-11.745027211760112,153.93267339725966,-2.702331066131592,1.1838502883911133,-6.1667585372924805,,,,,
5.126032000000009,-119.27133925002632,-9.437505143662314,154.8579255394809,-3.45131254196167,1.1874805688858032,-7.002315998077393,,,,,
5.1355290000000196,-120.24503844911101,-8.106124957030742,156.02959008637438,-4.537303447723389,1.1690428256988525,-6.549962043762207,,,,,
5.145047999999974,-119.95142621577565,-8.310479266612136,156.73728255179347,-5.384589672088623,1.2023794651031494,-5.2179694175720215,,,,,
5.154551999999967,-118.38766608706618,-10.085630172111474,156.5376527678363,-4.429688453674316,1.2580384016036987,-3.1432883739471436,,,,,
5.164063999999939,-115.5464910169024,-13.12588893282779,154.57660893503405,-2.8849785327911377,0.915046751499176,-2.3422462940216064,,,,,
5.17359799999997,-111.02647673283953,-16.503650379568427,151.5971866337027,-1.2425636053085327,1.3081034421920776,-0.07477691769599915,,,,,
5.183088999999995,-106.82998781911436,-19.540958343662048,148.71446098520025,0.35763904452323914,0.975069522857666,0,,,,,
5.192601999999965,-102.38253186703501,-21.683850506969083,146.60625650943265,2.0742740631103516,0.7515761256217957,0.17388278245925903,,,,,
5.202096999999981,-97.43711523244079,-22.912812460085263,144.93156839843633,2.2220358848571777,0.9135298728942871,0.7763541340827942,,,,,
5.2116139999999405,-93.11737643075841,-23.292148176732987,144.57945312323085,1.6342437267303467,0.7292684316635132,0.6041379570960999,,,,,
5.221133000000009,-89.11526241615887,-23.253661206300897,145.79705582721357,0.8848055005073547,1.032441258430481,2.1870172023773193,,,,,
5.230627000000027,-85.82833672991428,-23.389148980878694,146.98014017451243,-0.12704023718833923,1.2290773391723633,3.559401512145996,,,,,
5.240149999999971,-83.08454081404425,-24.108471912215112,147.15150702917907,-0.8071036338806152,1.232539176940918,4.213862895965576,,,,,
5.249659999999949,-80.6945756418563,-25.581157800322494,146.33912106143384,-0.42004406452178955,1.5683773756027222,5.6804704666137695,,,,,
5.259168000000045,-79.60643683380505,-27.567808707478093,144.63618536674738,1.0524423122406006,1.3774222135543823,6.384731769561768,,,,,
5.26869099999999,-79.19248359060364,-29.391572810793523,142.4122606322821,2.840527296066284,1.2566308975219727,6.499139785766602,,,,,
5.2781909999999925,-79.68964856870865,-30.438162119543946,140.88597893868663,4.3235697746276855,1.2726906538009644,5.757664203643799,,,,,
5.287714000000051,-81.51530825373626,-30.16591600506697,141.11792200986758,4.84422492980957,0.8264120221138,4.3121161460876465,,,,,
5.297211999999945,-84.83221640760982,-28.332673349919773,143.49821446773763,3.777585744857788,1.1397302150726318,4.2027668952941895,,,,,
5.306726000000026,-89.60231864942864,-25.397643767924954,146.86033888834694,1.5948742628097534,0.8487111926078796,2.709040880203247,,,,,
5.316242999999986,-94.48080797868916,-22.010386146975176,150.30178697201572,-0.5110774636268616,1.3871524333953857,2.945101499557495,,,,,
5.325838999999974,-100.2402847757226,-18.987684236722963,152.709236089872,-2.2642874717712402,1.6427052021026611,1.6692144870758057,,,,,
5.335262999999941,-106.47845475210798,-16.81296198326108,153.87829120841297,-3.3380889892578125,1.4060488939285278,-0.029600024223327637,,,,,
5.3447700000000395,-112.11235015488312,-15.313395738178972,154.41236097399724,-3.28338885307312,1.3547641038894653,-1.640281319618225,,,,,
5.354272000000037,-117.15518979408382,-14.174288551522558,154.5566574015305,-2.973050355911255,1.3614225387573242,-3.864264488220215,,,,,
5.363796999999977,-121.7248579124992,-12.950098647713476,154.7334680261996,-2.5220863819122314,1.168079137802124,-5.785416126251221,,,,,
5.373306999999954,-125.49921398965992,-11.469126635646738,154.86849759999663,-2.2579214572906494,1.2089619636535645,-6.197326183319092,,,,,
5.382798999999977,-128.99292640734276,-9.92845187612825,154.9515974519796,-2.7070279121398926,1.2652435302734375,-6.407514572143555,,,,,
5.392317000000048,-132.2178183730143,-8.403239980796862,155.291394560741,-3.603040933609009,1.2076592445373535,-5.542060375213623,,,,,
5.401837,-134.67092056278221,-7.789616717812377,155.4691457057154,-4.191934585571289,1.657117247581482,-3.2442665100097656,,,,,
5.4113459999999804,-137.09193167968206,-9.174185324560131,154.8035348867535,-3.685648202896118,1.605846881866455,-1.712061882019043,,,,,
5.420842999999991,-138.57792873561797,-12.327681545954858,153.39204435431216,-2.8120832443237305,0.9756785035133362,-1.4398293495178223,,,,,
5.430442999999968,-138.57469677223506,-16.177997372588127,152.18700183197296,-1.1578038930892944,1.615011215209961,0.7346758246421814,,,,,
5.439902999999958,-139.4719063098429,-20.13693407946273,151.4008158352742,0.5144963264465332,1.121891975402832,0.4404447674751282,,,,,
5.458896999999979,-138.36919393938638,-25.73444866916072,150.20149462045913,2.120753765106201,0.9557154774665833,0.2753988206386566,,,,,
5.468412999999941,-136.45927258731024,-26.59972389817548,149.65484704627525,1.6531012058258057,0.9163641929626465,0.6157928705215454,,,,,
5.47791600000005,-133.57009522338996,-26.288230017467466,149.1389426697884,0.8359382748603821,0.7516291737556458,1.181260347366333,,,,,
5.487498999999957,-128.79796550911882,-25.731793949963258,148.18308129900893,-0.19525253772735596,1.1530330181121826,2.891484022140503,,,,,
5.497005999999942,-123.04594479759416,-25.71202262549584,146.6780406454255,-0.9208413362503052,0.9217100739479065,3.956737995147705,,,,,
5.506432000000018,-115.77692635754507,-26.36353182816019,144.7179659021871,-0.7097609043121338,0.5207356214523315,5.125945091247559,,,,,
5.51594799999998,-106.68946057679373,-27.66826813657288,142.68637121709705,0.5270190834999084,0.5579348802566528,6.993785858154297,,,,,
5.52546499999994,-97.23789904504491,-29.382999151763848,140.41192508242406,2.358513593673706,-0.1869131326675415,6.8185858726501465,,,,,
5.534989999999993,-86.72496103391924,-30.65748284557329,138.88835868861744,4.032105922698975,0.21123528480529785,6.5260162353515625,,,,,
5.544674999999984,-77.21918124666254,-30.73957144912836,138.65062691824713,4.556692600250244,0.5216501355171204,5.671080589294434,,,,,
5.554185999999959,-70.86585391686248,-29.372449406598257,140.9975802258743,3.672126293182373,0.40660417079925537,4.301615238189697,,,,,
5.563686999999959,-67.47930921424332,-26.80039071794184,145.60585741478138,1.5840893983840942,0.5818859338760376,3.329608678817749,,,,,
5.573014999999941,-66.6661987802317,-23.465379884356608,150.766711794374,-0.9278504252433777,0.9178888201713562,2.459977388381958,,,,,
5.582536000000005,-67.93256250074394,-20.09708872814423,155.05704741269747,-2.9784417152404785,0.9942660331726074,0.8742327690124512,,,,,
5.59203100000002,-69.78362227798011,-17.404770930809747,157.70363418620735,-3.695427417755127,0.8490747213363647,-0.4915305972099304,,,,,
5.601544999999987,-70.98962221803795,-15.602487878642537,158.266064943039,-3.2538528442382812,0.7117654085159302,-1.3331764936447144,,,,,
5.611062999999945,-71.4300735941697,-14.593588969868266,157.68291582305255,-2.323786497116089,0,-3.1727545261383057,,,,,
5.620574000000033,-69.6441901275179,-13.93640292573033,157.6155678978351,-1.3405624628067017,-0.5757234692573547,-4.797957420349121,,,,,
5.6300939999999855,-64.09525559564507,-12.884589448726324,158.6821755490961,-0.9686428308486938,-0.6858259439468384,-5.360631942749023,,,,,
5.639595999999983,-53.388966340315086,-11.001258973789241,160.69636995922906,-2.351895570755005,-0.36935579776763916,-3.0476531982421875,,,,,
5.649102999999968,-36.65309186728759,-9.40533497739664,163.88708593354366,-4.829845905303955,0.9961789846420288,2.0300467014312744,,,,,
5.6586280000000215,-15.860426514805928,-10.292918885990794,167.26784084276565,-5.505876541137695,2.9131484031677246,6.655237197875977,,,,,
5.668130000000019,5.7775367789506715,-13.012451241751466,167.98917687909332,-3.555267810821533,3.54473876953125,7.021449565887451,,,,,
5.677635000000009,28.1513232383602,-14.506324919014848,165.50833778045342,-0.7682747840881348,2.887829065322876,7.137698650360107,,,,,
5.687328999999977,50.60838480597304,-13.060470046025106,162.7058034564728,1.1265186071395874,2.1097872257232666,7.373463153839111,,,,,
5.696735999999987,72.36045956621963,-10.120768715137405,162.67260948631215,1.435711145401001,0.972094714641571,7.443554878234863,,,,,
5.705980999999952,93.16710661423343,-8.983712464934772,164.92362864626477,0.7367217540740967,0.16993248462677002,5.913083553314209,,,,,
5.715483999999947,113.42353260457044,-11.082999675044164,166.8609644226583,-0.13118936121463776,0.4090030789375305,5.6523542404174805,,,,,
5.725004000000013,132.61793909996558,-15.36425508089939,166.98645033567334,-1.126065731048584,0.5266123414039612,5.0371294021606445,,,,,
5.734601999999995,151.76096795117545,-19.373565213146478,164.89955403615738,-1.3246673345565796,0.78804612159729,4.524407863616943,,,,,
5.744114999999965,171.89589590562693,-21.252075500936545,162.11509177893237,-0.14227762818336487,1.3666986227035522,5.586377143859863,,,,,
5.753616999999963,-167.6348150237316,-21.805983490360173,160.88770542700195,1.6826239824295044,1.683549404144287,7.510420322418213,,,,,
5.763123999999948,-146.96304742774822,-22.593915811588094,161.66346190803017,4.16770601272583,1.9655444622039795,8.735382080078125,,,,,
5.772564999999986,-125.93888685786068,-24.247649851024185,163.13997818843086,6.503601551055908,1.7750449180603027,8.526719093322754,,,,,
5.782267000000047,-104.57372960335303,-24.90796482284754,164.19321449004252,7.421042442321777,3.1299543380737305,8.220154762268066,,,,,
5.791760999999951,-85.2591952108092,-23.164879901333716,165.56341877679722,5.483679294586182,2.6902644634246826,7.915099620819092,,,,,
5.801275000000032,-68.86470784112801,-19.97268484983503,168.8993707347914,3.040396213531494,1.1520967483520508,6.277650833129883,,,,,
5.8107800000000225,-52.09694366395694,-16.620269083496343,174.58483704521757,0.4342033267021179,3.488105297088623,6.613953590393066,,,,,
5.820285000000013,-40.89801191686468,-13.7987339024381,-179.76397198433637,-2.113171339035034,2.4526360034942627,4.230617046356201,,,,,
5.829816000000051,-33.55688213344527,-11.334966100826568,-175.82883231238975,-3.3589916229248047,0.42410504817962646,-0.28871047496795654,,,,,
5.839318000000048,-24.285999407652152,-8.912066409937484,-173.91747876429326,-3.190685749053955,1.244118571281433,1.2039581537246704,,,,,
5.849013000000014,-16.517222034731784,-5.498537326856034,-174.34221368594297,-2.2850892543792725,0.8805917501449585,2.15018367767334,,,,,
5.858515000000011,-11.451618871098448,-1.237078089769847,-175.86414974541836,-0.8690241575241089,-0.8566009998321533,0.14111387729644775,,,,,
5.868031999999971,-5.822935081632169,3.179866144505602,-176.64488760846004,0.30392107367515564,-0.7726036906242371,-0.049990296363830566,,,,,
5.877520000000004,-0.7568151849566981,7.626696317821964,-175.59079885465218,0.2341180145740509,-0.7881906628608704,0.6025155186653137,,,,,
5.886873000000037,3.8273432139723353,11.070645133546238,-172.31637575516942,-1.5596985816955566,-1.564467430114746,-0.5050661563873291,,,,,
5.89656500000001,10.253971298644796,12.127011176345762,-167.69006124024642,-5.321910858154297,-1.1143473386764526,1.9767470359802246,,,,,
5.906081999999969,14.389713809007876,14.081552783478354,-165.6983043099142,-7.739633083343506,-2.5639216899871826,3.399170398712158,,,,,
5.915402999999969,14.29878866239294,18.369965815987552,-168.33891409543514,-6.491628170013428,-3.237281560897827,-0.5366337299346924,,,,,
5.925092999999947,17.021404747529967,21.237921267252588,-168.28858752952476,-1.830204725265503,-1.4821194410324097,1.2564215660095215,,,,,
5.934618,19.816179025975774,23.236944087291977,-165.7214274151688,-1.2464377880096436,-0.6907114386558533,1.0641515254974365,,,,,
5.944028000000003,21.708174987048338,22.976968269148287,-162.70711462412598,-0.7079597115516663,-1.4563992023468018,-2.287585973739624,,,,,
5.953617000000008,25.534763140904424,20.473926281249092,-159.89983973968313,0.1561695784330368,-0.39466366171836853,-0.32113736867904663,,,,,
5.963143999999943,28.024380425390003,18.450338973889863,-157.09928581842487,-0.22169196605682373,-0.3055369257926941,0.03745394945144653,,,,,
5.972472000000039,29.455966989836238,16.65080324008914,-155.16744048934564,-0.18969213962554932,-0.6255053281784058,-0.7114014029502869,,,,,
5.982165000000009,30.67783884717778,14.36309881980645,-154.85376214037632,0.7458433508872986,-0.16065481305122375,0.49891674518585205,,,,,
5.991489999999999,30.449906711712725,12.839063551677999,-155.46503378737594,1.9538713693618774,-0.503819465637207,0.11505764722824097,,,,,
6.000986000000012,30.091278525841915,12.185988995563859,-156.07541297461478,2.82991623878479,-0.5671306848526001,-0.3976854979991913,,,,,
6.010512999999946,29.402798471380738,11.201850333295505,-157.0203077411311,4.087246894836426,0,0,,,,,
6.020006999999964,27.650801219966652,9.716149867304301,-157.98931158411762,5.5872087478637695,0,0.07827937602996826,,,,,
6.029524000000038,25.35689725684533,8.481598228396653,-158.73358887186862,5.773310661315918,0.7277106046676636,0.0829276442527771,,,,,
6.039034000000015,21.72342915603933,7.2647678770067,-159.66274129512456,5.201543807983398,0.9744886159896851,-0.33771562576293945,,,,,
6.048553999999967,17.2038826631265,6.14767379327666,-160.7395436159253,4.662196159362793,0.4683781564235687,-0.4243289828300476,,,,,
6.058052999999973,12.669635326653754,5.863497181656634,-161.08291834875217,3.8222904205322266,1.083823323249817,0.9422309994697571,,,,,
6.067748000000051,5.817666758351108,6.188564963371177,-160.35679592260593,3.0876424312591553,1.5536866188049316,1.416567087173462,,,,,
6.077079000000026,-3.3580726404455343,6.919680216427486,-158.54995435569916,2.3934648036956787,1.3011459112167358,0.7133474946022034,,,,,
6.086589000000004,-12.392144610482271,8.557472809863524,-155.907570511811,1.8933141231536865,1.3348278999328613,0.9018194079399109,,,,,
6.096091999999999,-20.961570336556036,11.331003564420081,-152.95131066718662,1.1321797370910645,1.9366177320480347,1.3830347061157227,,,,,
6.1056109999999535,-29.756442388714195,14.410583337854478,-149.98349140512462,0.09370303153991699,1.6642751693725586,-0.034334659576416016,,,,,
6.1151270000000295,-37.33335303816172,17.096600670248222,-147.14152179093327,-1.0506346225738525,1.6666347980499268,0.028110921382904053,,,,,
6.124642999999992,-43.997818469899,19.51292396313113,-144.9546502034137,-2.6033883094787598,1.8744432926177979,0.3690640926361084,,,,,
6.134148999999979,-50.376593957081866,21.376632281720525,-143.31606935867677,-4.883070945739746,2.068204164505005,0.4655720591545105,,,,,
6.143654999999967,-56.59746240928616,22.745137121739155,-141.60729737548274,-6.756059646606445,1.5566556453704834,0.5101144909858704,,,,,
6.153171000000043,-61.522544726600486,25.542875484272425,-140.4065891101581,-6.656071186065674,1.7522635459899902,0.6606552600860596,,,,,
6.162682000000018,-65.7493517086337,30.350589495858138,-140.12339281489372,-5.52170991897583,2.3738863468170166,0.8746174573898315,,,,,
6.17220199999997,-69.87328816075136,34.62181729112007,-141.43614965270933,-4.37980842590332,1.7003071308135986,-0.7793653607368469,,,,,
6.18170699999996,-71.50389266817552,36.157622206302825,-142.81951198616622,-2.7221577167510986,2.4782121181488037,0.4464532434940338,,,,,
6.191219000000046,-73.92632100729116,34.39152864557446,-144.57595736955426,-1.1806237697601318,2.4037132263183594,0.27256691455841064,,,,,
6.2007169999999405,-76.53840211469515,30.06954790605106,-146.59638636094363,-0.2457931637763977,1.2695579528808594,-1.098071813583374,,,,,
6.210297999999966,-76.25932617103018,24.454088644702246,-147.67487169833888,0.27922406792640686,1.5113710165023804,-0.45698243379592896,,,,,
6.21981500000004,-75.52013851895687,18.894070196178532,-148.2132092664477,0.4176127314567566,1.1650874614715576,-0.18284612894058228,,,,,
6.229433999999969,-74.56623037125361,14.659134337278418,-149.1140802801753,0.5280786752700806,0.3615596294403076,-0.5280357003211975,,,,,
6.238939999999957,-72.17674277004002,12.340705779110163,-150.5649364297433,0.3957297205924988,0.562315821647644,0,,,,,
6.248259999999959,-69.60527877279834,11.443110469496187,-152.08105403218926,1.0313758850097656,0.521998405456543,0.5104542970657349,,,,,
6.257682000000045,-66.87583336993309,11.301950903887843,-153.73395221532306,2.3619301319122314,0.1303921341896057,0.22579842805862427,,,,,
6.267290000000003,-63.432071882711,11.375701846686864,-156.02899774082502,4.166597366333008,0.14643782377243042,0.9204938411712646,,,,,
6.276796999999988,-59.86634466288394,10.842650264229816,-158.49216956405752,6.278794288635254,-0.11225086450576782,0.5408468246459961,,,,,
6.286306999999965,-55.99077886341842,8.954474286330033,-160.28565136532282,7.89427375793457,-0.08226853609085083,1.1828253269195557,,,,,
6.295821000000046,-52.557224835093294,6.204685455793343,-161.00262888869554,7.276182174682617,-0.4143313765525818,1.295560598373413,,,,,
6.305328000000031,-50.242938845825634,3.536323295639007,-160.02362209436419,5.5127058029174805,0.39668986201286316,2.910557270050049,,,,,
6.3148499999999785,-51.418320293440836,2.190119875854083,-158.97171811245664,3.1258316040039062,-0.09112679958343506,0.9973869919776917,,,,,
6.324541999999951,-52.087096333164574,1.9158899914844159,-158.1719727095162,1.9783915281295776,-0.29092973470687866,0.4747774600982666,,,,,
6.334051000000045,-52.6577817796994,2.2634932887838177,-157.09678054548002,1.3202927112579346,0.7700251340866089,1.8984941244125366,,,,,
6.343385000000012,-55.606622567075114,3.4375910730883326,-155.88248943152166,1.5159724950790405,0.1058458685874939,0.0944446325302124,,,,,
6.35288300000002,-57.72538589285379,5.721874438423243,-154.42941591287803,1.4788926839828491,0.6189804077148438,0.107014000415802,,,,,
6.3624039999999695,-59.85385434139751,8.609114690532175,-152.09027210336453,1.3569183349609375,1.036244511604309,-0.16952040791511536,,,,,
6.371913999999947,-61.919133808613154,11.75517551695936,-148.747326680327,0.9991409182548523,0.8351419568061829,-0.732551097869873,,,,,
6.381436000000008,-62.520225558805144,14.916703703569969,-144.7370229027086,-0.417706161737442,1.2338919639587402,0,,,,,
6.390935000000013,-62.457022349412455,17.381298042922975,-140.14160287286094,-2.6406679153442383,1.6505014896392822,0.6207313537597656,,,,,
6.400441999999998,-62.11969536475576,18.65948406889945,-135.36801730702166,-5.714083671569824,1.6998507976531982,0.767582893371582,,,,,
6.409951999999976,-61.37906869833251,19.30523817989792,-131.8790454266502,-7.616374492645264,2.075869083404541,2.1322648525238037,,,,,
6.419471000000044,-60.83636241695077,21.209969250462223,-130.95877401403533,-7.550020217895508,1.8909263610839844,0.6741042137145996,,,,,
6.428971000000047,-60.46611874050939,23.737859148536916,-132.15622546353723,-5.433502674102783,1.9381752014160156,1.6504958868026733,,,,,
6.438485000000014,-59.94539527650392,25.863128904791456,-134.93785932491397,-3.6795976161956787,1.2841973304748535,-0.39437246322631836,,,,,
6.447985000000017,-58.000372132487506,26.083349399619316,-136.40673648441947,-1.342522382736206,1.6725707054138184,1.1848654747009277,,,,,
6.457499999999982,-56.809124991466255,24.999022406453857,-137.34825191910386,0.4701402187347412,0.7546117305755615,-0.41355180740356445,,,,,
6.467037000000005,-54.84227637071236,23.67595971882677,-138.56707968549946,0.450054794549942,0.8750041723251343,-0.04294273257255554,,,,,
6.48622499999999,-50.1034234712115,19.22288562856277,-138.75651887530313,0.2598068118095398,0.3974054753780365,-0.10474401712417603,,,,,
6.495752000000039,-47.46416143956032,17.149379462549476,-139.27175599697753,-0.12084522843360901,0.4934875965118408,0.26281189918518066,,,,,
6.505250000000046,-45.47827475449552,15.277326725322428,-140.6210672112424,-0.061726927757263184,-0.039346396923065186,-0.5657679438591003,,,,,
6.514593999999988,-42.66867899345631,13.237102917340469,-142.40074552311142,0.9765946269035339,-0.1957150101661682,-0.46731919050216675,,,,,
6.5240740000000415,-39.0392415552791,11.676758209699024,-145.00464181784034,2.678715229034424,0.06269341707229614,0.5308159589767456,,,,,
6.5335790000000316,-35.58364187114361,11.098989720734236,-148.22633717841367,5.149811267852783,-0.7524613738059998,-0.0915302038192749,,,,,
6.543112999999948,-30.98341264789281,11.04062896978809,-150.56952599950947,7.548550605773926,0,1.1338005065917969,,,,,
6.55261900000005,-27.680318329316396,10.361284331305846,-151.1416921907458,8.140055656433105,-0.7267518043518066,0.40697354078292847,,,,,
6.56212000000005,-25.068605720525078,8.53302959960537,-149.80728263964747,6.434219837188721,-0.227436363697052,1.3568003177642822,,,,,
6.571634000000017,-24.401870093915022,6.262502465832378,-147.85517016347978,4.098598480224609,-0.11695578694343567,1.8092117309570312,,,,,
6.581330999999977,-25.184645479565877,5.11592585944974,-146.73074006891648,1.7857972383499146,-0.3431359827518463,0.36131852865219116,,,,,
6.5908379999999624,-26.08397606981283,4.6431408190083365,-146.3472884257493,0.9662667512893677,0.15830233693122864,0.9430590271949768,,,,,
6.600350000000049,-28.483406428109575,4.827248756097188,-146.31101437128794,1.0619484186172485,0.1926109492778778,0.5257009267807007,,,,,
6.609684000000016,-31.566566300243068,6.1781090294780565,-146.04458073078115,1.2782009840011597,0.15710818767547607,-0.10014462471008301,,,,,
6.619172000000049,-34.48372200191142,8.365068390343984,-144.71720436104405,1.6337891817092896,0.6106477379798889,0.12326294183731079,,,,,
6.628704999999968,-37.20610776182938,11.011933087318464,-141.88000361307817,1.3507027626037598,0.4949701428413391,-0.7372196316719055,,,,,
6.638207999999963,-38.16276399758693,13.929843367496725,-137.7596168015998,0.26807138323783875,1.1411470174789429,-0.16903156042099,,,,,
6.647717999999941,-38.710012602243815,16.727621977999224,-133.14114709506217,-1.925686240196228,1.7595926523208618,0.1913626790046692,,,,,
6.657235000000014,-39.6516779152314,18.798116418196816,-128.95425059429635,-5.179869651794434,1.798661231994629,0,,,,,
6.666747999999984,-40.36750141357222,20.00876047302933,-126.36110170258038,-7.450835227966309,2.3685126304626465,1.3254411220550537,,,,,
6.676255999999967,-42.02866520376311,22.14197350825315,-126.37483736848255,-7.428991794586182,2.217036008834839,0.604299008846283,,,,,
6.685775000000035,-44.41716025090196,25.37831493763615,-128.16242692821382,-4.947007179260254,1.773658037185669,1.265122652053833,,,,,
6.695273000000043,-46.328695785660955,28.411132473337002,-131.14078176554273,-3.0292513370513916,1.010088324546814,-0.17034021019935608,,,,,
6.70478700000001,-46.89537557064366,29.560714469085028,-133.53653913452203,-1.2939224243164062,1.9193096160888672,1.0372741222381592,,,,,
6.714298999999983,-48.643296566992404,28.816002329858463,-134.98315814809325,0.3370824456214905,1.084000587463379,-0.5603353381156921,,,,,
6.723805999999968,-49.25773262603268,27.434707607125436,-136.10512962914092,0.27578312158584595,0.9182385206222534,-0.5401793718338013,,,,,
6.733335000000011,-48.83073586515665,25.512311420997808,-136.6809203135797,-0.3367089629173279,1.216038703918457,-0.20368993282318115,,,,,
6.742813999999953,-48.426369716123936,22.986069923354716,-136.7439686661567,-0.8359131217002869,0.7640042901039124,-0.5408913493156433,,,,,
6.752343999999994,-47.10720343877151,20.63839554867805,-137.38091614056322,-1.244627594947815,0.7365418076515198,-0.19977116584777832,,,,,
6.762032999999974,-45.318420546339006,18.68089673742173,-139.16641882441877,-1.228033185005188,0.8135802745819092,0.04477614164352417,,,,,
6.771534999999972,-43.76681446704005,16.65880056834852,-141.85467979091527,-0.32815009355545044,0.5240763425827026,0.33083486557006836,,,,,
6.781060000000025,-42.19820534084102,14.619285910277029,-145.26345102262084,1.2596490383148193,0.14705651998519897,0.3658263683319092,,,,,
6.790380000000027,-40.53676680892808,12.898087371742282,-149.11242231962467,2.8664608001708984,0.04573863744735718,0.7727169990539551,,,,,
6.799893999999995,-38.976674552916435,11.570218397871102,-152.72690775830313,4.685011863708496,-0.5408255457878113,0.04794996976852417,,,,,
6.809398999999985,-37.03191685140372,10.36156985736722,-154.89958664745876,5.7093329429626465,0.08125627040863037,1.419424295425415,,,,,
6.81890599999997,-36.3160414733341,9.200822395585071,-155.72270746609314,5.7364397048950195,-0.4516502022743225,0.7607403993606567,,,,,
6.828424000000041,-36.02492916965049,8.209145321661,-155.70085403356947,4.395613670349121,-0.0525326132774353,1.186312198638916,,,,,
6.837947999999983,-36.40625587522003,7.247038250902399,-155.9004663184624,3.631340742111206,-0.1717768907546997,0.9573216438293457,,,,,
6.847441000000003,-37.18558752663402,6.693053267756104,-156.80897188482595,3.1608171463012695,0.17085063457489014,1.4090485572814941,,,,,
6.856948999999986,-39.238046977586826,6.49607779183475,-158.2166330844137,2.9773263931274414,0.23005059361457825,0.8759288787841797,,,,,
6.866460999999958,-41.97823225468912,6.429304598711776,-159.4474800147748,3.185763359069824,0.31867703795433044,0.8287262320518494,,,,,
6.8759679999999435,-45.10297320642637,6.80105919531171,-160.12588651254856,3.0541112422943115,0.5775163173675537,0.6985238790512085,,,,,
6.88548000000003,-48.60962202127613,7.862635426415054,-160.02353771786568,2.614274740219116,0.7073211669921875,0.2542930245399475,,,,,
6.894988000000012,-52.10430713404001,9.659904715916394,-159.06000028973605,1.8445004224777222,0.7569563388824463,-0.02778148651123047,,,,,
6.904510999999957,-55.05293326477742,12.249100115630625,-157.67112353765512,0.6701300144195557,0.96642005443573,-0.21402621269226074,,,,,
6.914029000000028,-57.55987490881474,15.416979049579988,-156.39311502839723,-0.7525778412818909,1.2312359809875488,-0.5580469965934753,,,,,
6.923525000000041,-59.79552966483748,18.70578313685793,-155.60821343034678,-2.457381010055542,1.3010878562927246,-1.2279198169708252,,,,,
6.933024000000046,-61.3511124339146,21.544365484767784,-155.41826529715482,-4.569487571716309,1.3223820924758911,-1.5679463148117065,,,,,
6.9425469999999905,-62.47892752095244,23.707489774544417,-156.57128794386486,-6.411940097808838,1.4178749322891235,-1.233952522277832,,,,,
6.952065999999945,-63.79659911520474,25.26015471926086,-159.62132322655464,-6.739100933074951,0.9583090543746948,-1.3712220191955566,,,,,
6.961578000000031,-65.02744770123239,26.54079160253204,-164.28645804327314,-5.880345821380615,0.6145045161247253,-1.3202747106552124,,,,,
6.971072000000049,-65.70779878743011,27.541235354427652,-169.24483212924645,-4.483493328094482,0.25079411268234253,-1.5022940635681152,,,,,
6.980591000000004,-64.98504319574982,27.975292761689733,-173.3748388760345,-2.956418514251709,0.5149935483932495,-1.3043029308319092,,,,,
6.990102999999976,-63.47316744512662,27.759315798043325,-175.94339739369107,-1.7687904834747314,0.0775105357170105,-1.9224287271499634,,,,,
6.99962400000004,-60.068404311925015,27.153744490257505,-177.50850915636212,-1.2423549890518188,0.12377262115478516,-1.527392864227295,,,,,
7.009108999999967,-55.46846432480817,25.979630235672794,-178.65776752238077,-0.7456185221672058,0.5288382768630981,-1.1245909929275513,,,,,
7.018668000000048,-51.08507805164032,23.87249765229561,-179.80818864232216,-0.4564345180988312,0.5198535919189453,-0.8244997262954712,,,,,
7.028323,-46.874579466095504,20.689107259350443,178.69417252100195,-0.13286644220352173,0.38138648867607117,-0.7054671049118042,,,,,
7.037841999999955,-42.54145131514273,16.542707125053067,176.71526875953768,0,0.5712538957595825,-0.03742706775665283,,,,,
7.047370999999998,-38.865568196201785,11.673456831395407,174.22314339078852,0,0.5154519081115723,0.12975382804870605,,,,,
7.056880999999976,-35.95830845602025,6.519465316125316,171.25399646938033,0.02777249366044998,0.36331623792648315,0.18900078535079956,,,,,
7.066367000000014,-33.75941191910686,1.5850057775656103,167.90650237637954,-0.06039479374885559,0.519868791103363,0.47100621461868286,,,,,
7.075895999999943,-32.7606198870072,-2.9489731198392453,164.35007795000894,-0.1342168152332306,0.8693159818649292,0.7869901657104492,,,,,
7.085392999999954,-33.424239354915066,-7.167441457615447,160.67429910322727,-0.12319303303956985,1.4722530841827393,1.590768814086914,,,,,
7.094730000000027,-36.19993283671874,-11.129109076248247,156.80419620017264,-0.14442405104637146,1.891232967376709,1.8616265058517456,,,,,
7.1042320000000245,-40.78795986674434,-14.956773048083301,152.53057436544873,-0.15173444151878357,2.676323413848877,3.43556809425354,,,,,
7.113736000000017,-47.80641628553127,-18.76470985029467,147.66609457217228,0.031534165143966675,2.4716713428497314,3.5537102222442627,,,,,
7.123256999999967,-55.216379528433684,-22.48986937661143,142.3861624884649,0.45546042919158936,2.072657823562622,3.823014736175537,,,,,
7.132759999999962,-62.1637213798488,-25.845666480788676,137.03652865680195,1.2857437133789062,2.3464455604553223,4.590254306793213,,,,,
7.142272000000048,-70.0340731205186,-28.525555732396896,132.25654493305117,2.167393684387207,2.086136817932129,4.263571739196777,,,,,
7.151773000000048,-77.91463951039013,-30.131797150740358,128.77128595729263,3.02571964263916,1.1523271799087524,3.071051597595215,,,,,
7.161295999999993,-83.74670719535585,-30.23595466605027,126.24932435238837,3.1937265396118164,1.117996096611023,2.1359102725982666,,,,,
7.170798999999988,-88.41798941529628,-29.08191568610369,124.81964573766909,2.4438676834106445,1.4367316961288452,1.3299148082733154,,,,,
7.180306999999971,-93.05183162208722,-27.33038296416024,125.19317427386851,1.5285069942474365,1.35797119140625,0.7881429195404053,,,,,
7.189821000000052,-96.77121971945049,-25.734869166263163,126.48025193754447,0.4979025423526764,1.3758420944213867,0.625480592250824,,,,,
7.199418000000037,-99.27366432383656,-25.090836710543716,128.11731119729322,-0.6292179226875305,1.5417325496673584,-0.032402828335762024,,,,,
7.208938999999987,-101.0840084932147,-25.819685678871036,130.3923797731527,-1.1089518070220947,1.255059838294983,-0.4564671516418457,,,,,
7.218372000000045,-101.63633454200705,-27.873777364792712,132.74599726572833,-0.7288544178009033,0.7784830927848816,-0.9877950549125671,,,,,
7.227865999999949,-100.33717560256748,-30.807904022347895,134.02197431431932,-0.1537775695323944,0.595320463180542,-1.4272575378417969,,,,,
7.237566000000015,-98.45539953747962,-33.688825006793074,134.26840796706495,0.450012743473053,-0.14815378189086914,-2.631195306777954,,,,,
7.246887000000015,-95.06132003770259,-35.382233048391655,134.06815988906627,0.839952826499939,-0.5516254305839539,-3.9257357120513916,,,,,
7.26590699999997,-84.45594506668446,-33.75611799556308,133.63368534049246,-0.36860913038253784,0.1745317578315735,-3.912236452102661,,,,,
7.27541599999995,-78.77028146843075,-31.536524416815258,134.2703059457339,-1.3795456886291504,0.1199614405632019,-3.3639841079711914,,,,,
7.2850140000000465,-70.86122311959417,-29.726150472757478,134.91691787782224,-2.4466700553894043,0.9658739566802979,-2.3601133823394775,,,,,
7.294506999999953,-61.58068843293691,-29.431473803256914,134.71863738081322,-2.9118926525115967,1.2270846366882324,-0.5396928787231445,,,,,
7.303947999999991,-50.85530655882525,-30.872749840448527,132.6253381683253,-2.3597781658172607,0.9936221837997437,-0.06714701652526855,,,,,
7.313458999999966,-37.84178714714241,-32.96176483341848,127.82029845835397,-0.9870251417160034,1.0322954654693604,1.1920117139816284,,,,,
7.323141999999962,-24.301366840353186,-34.04224711041061,120.78752272255248,0.5266255140304565,0.6586843132972717,1.9647190570831299,,,,,
7.332667000000015,-12.694918533382758,-33.64512069773081,113.9189135308995,1.5881762504577637,-0.21487672626972198,1.038792371749878,,,,,
7.342159000000038,-3.6799506109416744,-32.73758143982686,109.5837564525676,1.8456895351409912,-0.4368959665298462,0.4712286591529846,,,,,
7.35168299999998,1.647018926070133,-32.53622479574485,108.43714309503596,1.1481280326843262,-0.3080228269100189,0.798315703868866,,,,,
7.361196999999947,2.643798542193156,-33.40713368811264,109.63416156935767,-0.03754532337188721,-0.1007564514875412,0.7500543594360352,,,,,
7.370714000000021,0.052980271368005975,-34.50141510340339,112.25864581595084,-1.2080119848251343,1.1252974271774292,2.65305495262146,,,,,
7.380223999999998,-6.329998665978384,-34.278066013864226,114.6080448648945,-1.8535878658294678,2.3071837425231934,3.9966752529144287,,,,,
7.3897269999999935,-15.958026727298646,-32.6251662242383,115.21231369312565,-1.7750813961029053,3.503039598464966,6.103678226470947,,,,,
7.399239999999963,-28.424734175855114,-30.912129228695456,113.85499702035034,-0.9561486840248108,3.010693311691284,5.94477653503418,,,,,
7.4087469999999485,-41.080246013288445,-30.372874888798115,111.75441386527767,0.5018054246902466,2.6795530319213867,6.37462854385376,,,,,
7.418081000000029,-54.068906536959865,-31.016846584735426,110.16296224524679,1.7397022247314453,2.8406496047973633,5.9071245193481445,,,,,
7.427588000000014,-67.79901796896695,-32.3364826196,110.101440677348,2.6223931312561035,2.051607847213745,3.772928237915039,,,,,
7.437092000000007,-80.64439859349243,-33.49340382238081,112.00068214297147,2.5488169193267822,1.7444766759872437,2.3533456325531006,,,,,
7.446615999999949,-93.1011110447016,-33.89661951837031,115.88429827807,1.6477196216583252,1.952241063117981,1.6216861009597778,,,,,
7.456124000000045,-105.89870976788102,-33.21898511902684,121.0800267369706,0.4290458559989929,1.8465508222579956,0.5570029616355896,,,,,
7.465702999999962,-118.3455785501582,-31.52782403800075,126.31520611407518,-1.163475751876831,1.9323582649230957,0.6339868903160095,,,,,
7.475222000000031,-130.82970373807933,-29.1736111875884,130.4528890576352,-2.6932435035705566,2.4652886390686035,-0.1221577525138855,,,,,
7.484735999999998,-146.10422962498592,-26.30733793757902,133.9093778164975,-3.9543251991271973,3.82307505607605,1.6104203462600708,,,,,
7.494240999999988,-166.13305690898275,-23.630313988884595,135.93069989071245,-4.424572467803955,4.603961944580078,4.790890216827393,,,,,
7.503745999999978,172.38104945930522,-22.539437589821077,135.2462156931043,-4.067391395568848,4.625943660736084,8.467113494873047,,,,,
7.513188000000014,151.90265329735766,-23.375427526516653,131.780783222571,-2.642704725265503,5.711395263671875,8.800332069396973,,,,,
7.522690000000011,131.82497086782135,-26.75700129995001,127.63374903545623,0.47895777225494385,5.400660514831543,8.586877822875977,,,,,
7.532207999999969,111.0458380259058,-32.49074803961614,125.48986728299785,3.5978260040283203,4.1164140701293945,8.294693946838379,,,,,
7.541892999999959,87.40913469935153,-37.85981779623146,128.61438517054503,4.238049030303955,5.102640628814697,7.956385612487793,,,,,
7.5513879999999745,62.20907453755897,-38.2916946267908,134.1164500099282,1.6644973754882812,5.866846561431885,7.6005048751831055,,,,,
7.56090800000004,40.086525393849776,-33.573872265262956,134.6798936550182,-1.2550947666168213,5.487329483032227,6.322663307189941,,,,,
7.5704130000000305,21.503169604733714,-27.260058725365035,128.30740046552452,-4.2288007736206055,5.103865623474121,5.358465194702148,,,,,
7.5797509999999875,4.654560552255954,-24.82761187369187,116.96857903973275,-5.486504554748535,4.9055914878845215,5.794649124145508,,,,,
7.589464000000021,-12.328957586838985,-27.66243787605225,106.02064354387927,-3.5235350131988525,3.654571056365967,6.97840690612793,,,,,
7.598787000000016,-31.45701610267633,-32.31656644706201,100.67619591749647,-1.556788444519043,2.9637815952301025,7.270688056945801,,,,,
7.608295999999996,-54.50673734846396,-35.20791056298432,103.41922863438546,1.2035590410232544,1.9573698043823242,7.51755428314209,,,,,
7.617809999999963,-75.77460521786233,-31.668724170989325,108.27866499586015,4.247078895568848,1.818975567817688,7.354219913482666,,,,,
7.627308999999968,-89.42221012469409,-23.21665847233063,107.65384475635535,4.140115261077881,1.6017615795135498,3.307016372680664,,,,,
7.636831000000029,-95.9635668013587,-14.89463405170906,105.34798028683052,2.273942708969116,0.6759969592094421,-1.7512516975402832,,,,,
7.646152000000029,-96.3837799722167,-10.135369603533135,105.485094999464,0.4984999895095825,1.0296249389648438,-1.7504981756210327,,,,,
7.655657000000019,-94.16792616414497,-10.714028469544104,109.17719220988079,-0.5340471863746643,1.2294666767120361,1.1575267314910889,,,,,
7.665175999999974,-91.0136275310132,-16.464950218449506,114.73712261843212,-0.19027549028396606,0.25455158948898315,1.8297171592712402,,,,,
7.674689999999941,-83.00733162630124,-25.176133273797916,118.03382900333489,-0.4851427972316742,0.7525221109390259,1.7433348894119263,,,,,
7.684187999999949,-71.34173805309103,-33.810734991422386,117.71216525810483,-0.9142539501190186,1.4640146493911743,3.1771187782287598,,,,,
7.693896999999993,-61.54602687838063,-39.84164649757284,115.4757952727419,-0.1901874840259552,-0.5576770305633545,1.2920151948928833,,,,,
7.70320700000002,-52.76391447755826,-41.29354796701388,113.50367263387001,0.11677110195159912,-1.309149980545044,-1.776564598083496,,,,,
7.712724999999978,-45.79886101199735,-39.09452105373031,115.21511184385301,0.30130136013031006,-0.11276447772979736,-1.7974982261657715,,,,,
7.722233999999958,-42.599841881241375,-35.610198976697795,121.35084180483955,0.5690422058105469,0.1435319483280182,-3.0134828090667725,,,,,
7.73182799999995,-39.75749984754708,-32.05585129746835,129.6461953026087,0.16238653659820557,0.4464317560195923,-4.239109039306641,,,,,
7.7413420000000315,-34.66046308586337,-29.926842477374556,137.92263665355296,-1.2489879131317139,1.289374589920044,-3.780327558517456,,,,,
7.7508490000000165,-27.788579835547562,-30.859666093732947,144.47735778291894,-2.6274940967559814,1.3137831687927246,-3.5527114868164062,,,,,
7.760349000000019,-16.876162868660238,-34.66153258694794,147.25933711615997,-3.4265670776367188,1.1507831811904907,-1.9143853187561035,,,,,
7.769787999999949,1.9808150097919215,-38.86657969995841,144.24471424180848,-3.576422691345215,2.0072972774505615,1.5899226665496826,,,,,
7.779476000000045,27.895462458922307,-39.85306012551371,135.86705371900123,-2.4949207305908203,2.388340711593628,6.006134986877441,,,,,
7.789003999999977,54.46192772723342,-35.50984422665214,127.76907645753298,-0.3057354688644409,1.6993887424468994,7.515639305114746,,,,,
7.7983299999999645,76.76618104948083,-28.45212343852627,125.4601397623702,1.7922730445861816,0.7609076499938965,7.663907051086426,,,,,
7.807902000000013,95.05785229354228,-23.55420423896259,128.20585224729948,2.4957540035247803,-0.06566870212554932,5.88026237487793,,,,,
7.817349000000036,111.74024516799358,-23.44619977158707,131.2115978978031,2.373532295227051,-0.659862756729126,3.376263380050659,,,,,
7.826850000000036,129.8529294974105,-27.186137899552506,130.33343855898724,1.6659232378005981,0.10545885562896729,2.517364501953125,,,,,
7.836367999999993,149.97180932911675,-31.36728375977053,124.11066889537081,0.4398006796836853,1.0226969718933105,2.2561659812927246,,,,,
7.845872999999983,170.99881231508508,-32.1396999901769,114.60259977760055,-0.6086746454238892,1.3712674379348755,1.3972032070159912,,,,,
7.855374999999981,-168.7250684568105,-28.40420157703373,106.9590620479401,-1.154022455215454,1.8946080207824707,1.183759331703186,,,,,
7.864958999999999,-149.768186197115,-22.73688021712954,104.7257650549587,-1.3311874866485596,2.5309953689575195,2.291961431503296,,,,,
7.874486000000047,-130.6033976776711,-18.553949050400853,107.64078577246354,-0.9365850687026978,2.9371237754821777,3.922750949859619,,,,,
7.88398600000005,-110.51209577510181,-18.041177752100044,112.89257119816392,-0.26195916533470154,3.7004950046539307,7.326128959655762,,,,,
7.893430999999964,-89.95600577866898,-21.083143597618157,116.66078868016272,0.2189100682735443,4.717840671539307,7.990606307983398,,,,,
7.902939999999944,-68.12738308467027,-25.25277394173099,116.60984481211682,0.7116854190826416,4.404335021972656,7.655045509338379,,,,,
7.91244400000005,-44.89574968696529,-27.239524096102052,113.36362992647813,1.3727818727493286,3.8016037940979004,7.361869812011719,,,,,
7.922136000000023,-21.568526356936236,-24.95392704114359,109.86777174271693,0.7757056951522827,3.1327483654022217,7.148172378540039,,,,,
7.931646999999998,0.1361097935127538,-20.86277823020503,110.08102948911255,0.2164052128791809,2.061285972595215,7.0567097663879395,,,,,
7.941155999999978,20.515708385013685,-18.67728978263998,114.20880028255397,-0.205895334482193,2.371206045150757,6.79166316986084,,,,,
7.9506719999999405,38.977015590889096,-19.67287186054823,119.7931631812455,-0.79328453540802,1.7360069751739502,4.771182537078857,,,,,
7.960180000000037,54.6536965370821,-23.162201164049886,124.1201293953235,-1.2794703245162964,0.6053882241249084,2.7507193088531494,,,,,
7.969515999999999,70.92953676091136,-27.120607078467977,125.6715072164495,-1.2627660036087036,0.6715070009231567,3.6332485675811768,,,,,
7.979008000000022,87.87640357524867,-29.12497401577505,125.18071464363638,-1.0440376996994019,0.9541155099868774,5.194930076599121,,,,,
7.988521999999989,103.2946403533227,-28.163187205636717,124.3408549904195,-0.39196234941482544,0.48793208599090576,5.6338911056518555,,,,,
7.998036999999954,116.36618760048175,-24.984357018411572,124.60256103371333,0.4987715482711792,0.1883869767189026,5.349915027618408,,,,,
8.007552000000032,126.22003385742397,-21.366424875093486,126.38341171393013,0.8757803440093994,-0.15946847200393677,5.435997009277344,,,,,
8.01714800000002,132.2783674885645,-18.450397440095713,128.21295288129477,0.8436464667320251,-0.6548855900764465,4.454815864562988,,,,,
8.026655000000005,134.4972274610046,-16.603093421801535,128.47208458188388,0.7316824197769165,-0.8647335171699524,3.906834602355957,,,,,
8.03634199999999,132.7539615368368,-16.11737723116143,126.65554764531585,0.4667890667915344,-0.6962866187095642,4.1140642166137695,,,,,
8.045774000000051,127.83845616879933,-17.098843374090478,123.19029239369884,0.31688883900642395,0.2629867196083069,4.729065418243408,,,,,
8.055278000000044,120.11768349806366,-19.403241180054703,119.54383134228554,0.3782070577144623,1.445112943649292,5.7053656578063965,,,,,
8.064796000000001,108.83793364755176,-22.13766398444509,117.283554086172,0.1849452257156372,2.0142345428466797,5.247325420379639,,,,,
8.074301999999989,95.38536988425528,-23.62623415992285,116.26980708346467,-0.24795939028263092,1.2756080627441406,3.681135416030884,,,,,
8.084000999999944,82.78523674460693,-22.720842521036047,115.34475786205971,-0.5772131085395813,1.5195761919021606,3.784824848175049,,,,,
8.093508000000043,70.54044959254983,-19.22267179018055,113.56467672703033,-1.0540236234664917,1.717835545539856,2.7434871196746826,,,,,
8.103030999999987,59.16141271830798,-14.238274432586854,109.73427574188884,-1.3859384059906006,0.9173212051391602,0.8708256483078003,,,,,
8.112533999999982,50.1100585578627,-9.485188550028155,104.09714281679652,-1.3654464483261108,0.44002366065979004,0.4453529715538025,,,,,
8.122046999999952,42.26043362968293,-5.771035288531278,98.37207220657193,-1.14888334274292,0.3161490559577942,0.757664680480957,,,,,
8.131543999999963,34.210340756392505,-3.108066163475422,94.16544860097625,-0.8150685429573059,-0.09683036804199219,0.057609617710113525,,,,,
8.141080999999986,26.401585655438282,-1.0953435241030942,92.28552353267867,-0.6127883791923523,-0.04849877953529358,-0.07085061073303223,,,,,
8.150569000000019,18.663008112699984,0.9692442249720218,92.52042123743976,-0.42495042085647583,0.8250606060028076,0.8955149054527283,,,,,
8.160068000000024,9.653581475040637,3.8187132772713874,93.88074275029845,-0.30152589082717896,1.4980517625808716,1.4571154117584229,,,,,
8.169598999999948,-0.5347564964171853,7.455182563615881,95.18581503195318,-0.39544442296028137,1.8441438674926758,1.9504225254058838,,,,,
8.17911300000003,-11.643022847232352,11.122972511013735,95.7072631760887,-0.5803610682487488,2.388854742050171,3.1611924171447754,,,,,
8.188617000000022,-24.276799273656042,14.190624788194144,95.48511072621861,-0.5651605725288391,2.7135519981384277,3.962324380874634,,,,,
8.198125000000005,-38.061261519550904,16.521555754691736,95.28876173549529,-0.40999191999435425,2.4700632095336914,4.085366725921631,,,,,
8.207457999999974,-51.373504074292875,18.446015148356075,96.21208620302521,-0.10415512323379517,2.1250011920928955,4.023561000823975,,,,,
8.216961999999967,-63.184653554199826,20.911215087600024,98.44832698856466,0.4453814625740051,1.8853744268417358,3.8475499153137207,,,,,
8.22647900000004,-73.05087350274387,24.646928104376414,100.88393087780815,0.6780573725700378,1.6876485347747803,2.906353235244751,,,,,
8.235991000000013,-80.73547976270193,29.18264387770083,102.81903937327857,0.44906967878341675,1.62138032913208,2.1965725421905518,,,,,
8.245497999999998,-86.15430007222923,33.47923387932594,104.4126049685054,0.06055682897567749,1.5182652473449707,1.2278424501419067,,,,,
8.255034000000023,-89.4074318028817,36.694220853752874,105.77127190014785,-0.22825318574905396,1.416944980621338,0.5022394061088562,,,,,
8.264512999999965,-90.6939747519436,38.44336789227876,106.9158637526459,-0.4253389835357666,1.2725828886032104,-0.2229728400707245,,,,,
8.274047999999993,-90.61776416470381,38.83511454072249,107.82591294417826,-0.34240078926086426,0.9969871640205383,-0.46415600180625916,,,,,
8.283541000000014,-89.84719016609093,38.39164787229952,108.05195810689581,0.05194896459579468,0.6295434236526489,-1.0338854789733887,,,,,
8.293046000000004,-89.06480064772389,37.778954888706686,107.25235404033921,0.5642192363739014,0.4716138541698456,-1.3216289281845093,,,,,
8.302565999999956,-88.90024033241383,37.508298799205896,105.73341990850838,1.2766149044036865,0.15995311737060547,-2.2260208129882812,,,,,
8.312056999999982,-89.07119616350268,37.83285684837976,103.96232955688372,2.019935369491577,0.21312904357910156,-2.5137155055999756,,,,,
8.321582000000035,-89.9955589158999,38.6353177203804,102.35811621435266,2.643143892288208,0.4033840596675873,-2.896749258041382,,,,,
8.331101999999987,-91.9365985040485,39.565190040118004,101.34886753121546,2.8446078300476074,0.6298120617866516,-3.124417304992676,,,,,
8.340596000000005,-94.44879880808296,40.185627104043675,101.44872917699546,2.3876190185546875,1.0008517503738403,-2.7974648475646973,,,,,
8.35018500000001,-97.2594073489583,40.1416591386621,102.87591521843116,1.46617591381073,1.6584705114364624,-1.5155205726623535,,,,,
8.359702999999968,-101.25905010529048,39.32746616491592,105.10080921978019,0.26232045888900757,2.056964635848999,-0.12890693545341492,,,,,
8.369140000000016,-106.9989846322119,38.05137769249887,107.47042880704524,-0.8889496922492981,2.1411192417144775,0.9164291620254517,,,,,
8.378648999999996,-113.82035412684044,37.10588249028755,109.8524827030912,-1.3544175624847412,1.3838948011398315,0.9767036437988281,,,,,
8.388149999999996,-120.38555313649044,37.24865232782064,111.59926487928621,-0.8571100234985352,1.2560242414474487,2.048225164413452,,,,,
8.397661999999968,-127.36224060734256,38.46788170544115,111.81861810331436,-0.13488775491714478,0.9851855635643005,1.5588486194610596,,,,,
8.407351999999946,-133.2800605455447,40.58357424920151,110.86285223182155,0.3738149106502533,0.5590146780014038,0.3817331790924072,,,,,
8.416870000000017,-136.01724911887,43.198789866397085,109.87131514308186,0.42539384961128235,0.6906775236129761,0,,,,,
8.42637400000001,-134.52466389007867,45.70403344699479,110.33349870088645,-0.2070431113243103,0.8320744037628174,-0.1937464475631714,,,,,
