timestamp,Roll,Pitch,Yaw,Acc X,Acc Y,Acc Z,Gyro X,Gyro Y,Gyro Z,Acc Magnitude,Gyro Magnitude
0.0,7.3964658157549055,0.4884987184391406,-126.7244800315485,-0.026357555761933327,-0.025647103786468506,0.032197773456573486,,,,,
0.009518999999954758,7.367723644088649,0.47305859503481656,-126.67826367692395,-0.026627294719219208,0,0.029446959495544434,,,,,
0.019018999999957487,7.350306146298732,0.45062777445831625,-126.5749939708725,-0.03433917462825775,0,0.027940750122070312,,,,,
0.028524000000061278,7.346633690174144,0.4346409890672189,-126.53359184635804,-0.047794464975595474,0,0.028906404972076416,,,,,
0.038037000000031185,7.3549628893791175,0.43209316558054583,-126.54699824799782,-0.06223498284816742,0,0.03185272216796875,,,,,
0.04755699999998342,7.374643726907499,0.4451363031514734,-126.5468705569801,-0.0695711076259613,0,0.03555870056152344,,,,,
0.05707400000005691,7.397830316148482,0.4716801859356366,-126.58100205305018,-0.07154736667871475,0,0.043178439140319824,,,,,
0.06658000000004449,7.420773483543703,0.5042568094375381,-126.61426699228662,-0.06512224674224854,-0.028020016849040985,0.040795087814331055,,,,,
0.07610599999998158,7.434239874760293,0.5350942808795468,-126.64727110263786,-0.05555550009012222,-0.035572685301303864,0.03473019599914551,,,,,
0.09512200000006032,7.415696550234873,0.5626907561013971,-126.71138785107073,-0.035797394812107086,-0.04281485080718994,0.030788898468017578,,,,,
0.10462700000005043,7.386281745967788,0.5586001115458663,-126.74467150792808,-0.034404851496219635,-0.03986537456512451,0.03852987289428711,,,,,
0.1236549999999852,7.3033738894820965,0.5344282054948074,-126.81512510874346,-0.04775913432240486,-0.030621394515037537,0.05908060073852539,,,,,
0.1426810000000387,7.239628613483352,0.5350643873640022,-126.88864442572712,-0.06238802522420883,0,0.0372236967086792,,,,,
0.15218400000003385,7.221531243498564,0.5478859318343748,-126.92438439084057,-0.06118802726268768,0,0.034989893436431885,,,,,
0.171196000000009,7.225913332608626,0.5720583710664067,-126.86174904718713,-0.04685772582888603,0,0,,,,,
0.18071499999996377,7.241394089264061,0.5717218833198497,-126.83691239164628,-0.041983600705862045,0,0,,,,,
0.1902220000000625,7.255112207868845,0.5671067052069504,-126.84598218473164,-0.04279623180627823,-0.02636852115392685,0.0384831428527832,,,,,
0.19973400000003494,7.263457034475917,0.55917086916328,-126.84651217061725,-0.0463508702814579,-0.030173301696777344,0.038256168365478516,,,,,
0.20924600000000737,7.265955513748865,0.551656743253145,-126.81109476841051,-0.05087413638830185,-0.03241276741027832,0.039480507373809814,,,,,
0.21875599999998485,7.263775146621348,0.5535138594810481,-126.76592262252333,-0.05718569457530975,-0.03237497806549072,0.02654397487640381,,,,,
0.2282750000000533,7.2594186487500005,0.5616334704260655,-126.74155264022781,-0.060215841978788376,-0.032055310904979706,0.025071799755096436,,,,,
0.2377880000000232,7.250741005476121,0.573758597339149,-126.75089995731958,-0.06073600798845291,-0.030684716999530792,0.04311072826385498,,,,,
0.25680099999999584,7.234219780822142,0.6010964108785357,-126.82231135695933,-0.050498414784669876,-0.025029778480529785,0.03551512956619263,,,,,
0.26630099999999857,7.230841788329968,0.6051337226309366,-126.69562622993061,-0.042863886803388596,0,0,,,,,
0.27582200000006196,7.238938633798295,0.6010297285556228,-126.56053461756105,-0.03854357823729515,0,0,,,,,
0.2853300000000445,7.254298786612193,0.5920534434066362,-126.58775938015187,-0.04138439521193504,0,0.026041746139526367,,,,,
0.29484500000000935,7.2733975007383656,0.5818425344149587,-126.61669612735908,-0.04815078154206276,0,0.03828221559524536,,,,,
0.30436699999995653,7.2948706736559155,0.5777903960130956,-126.64789972739752,-0.055297575891017914,0,0.034913063049316406,,,,,
0.32339600000000246,7.341795989267753,0.6021888688128126,-126.71739128978697,-0.0653633251786232,-0.026161931455135345,0.027701973915100098,,,,,
0.33289300000001276,7.3630986864632115,0.6238167767057577,-126.7522908425326,-0.06108148768544197,-0.028482526540756226,0.032145678997039795,,,,,
0.35190000000000055,7.392522456218334,0.6545518772090971,-126.81689612419765,-0.04370854049921036,-0.030455566942691803,0.048321664333343506,,,,,
0.36141799999995783,7.39955958062833,0.6512751393475449,-126.84585084933664,-0.03376178443431854,-0.030821561813354492,0.0495569109916687,,,,,
0.37094200000001365,7.407360001832525,0.6349238574513908,-126.66576983937132,-0.029899440705776215,-0.02729714661836624,0.03956729173660278,,,,,
0.3804460000000063,7.4161744841233235,0.6099696430382839,-126.50508003816549,-0.03521538898348808,-0.026474475860595703,0,,,,,
0.3994750000000522,7.44834982039071,0.5974086518240772,-126.57464741747138,-0.07520683109760284,-0.029472142457962036,0,,,,,
0.40897900000004483,7.462372254334482,0.636255459718694,-126.53919834659875,-0.09526817500591278,-0.03288605809211731,0.031152069568634033,,,,,
0.4279940000000124,7.458880467558533,0.7785110041858779,-126.54708676024872,-0.07643499970436096,-0.03379762917757034,0.05630648136138916,,,,,
0.4375049999999874,7.443936336758956,0.8378008694389022,-126.5783964900126,-0.041727256029844284,-0.027680888772010803,0.05506712198257446,,,,,
0.4470139999999674,7.426433054955724,0.8515540816396394,-126.60569508127932,0,0,0.04307514429092407,,,,,
0.4850690000000668,6.940935534016768,0.5269134952967054,-126.97666637027625,-0.2106383889913559,0.043980881571769714,0,,,,,
0.49458100000003924,6.812924428374891,0.006369031882064082,-127.22926009943949,-0.16971272230148315,-0.03334785997867584,0.03968358039855957,,,,,
0.5040219999999636,7.028566101256645,-0.6818318073276328,-127.38545671961079,-0.4057280421257019,-0.12174713611602783,0.11584842205047607,,,,,
0.5135109999999941,7.1435237697030125,-1.480636889398685,-127.32017033322542,-0.37673741579055786,0.037820711731910706,0.5287178754806519,,,,,
0.5230070000000069,6.477294359073095,-2.1659776952975833,-127.0862554501103,-0.37406492233276367,-0.08136683702468872,0.4789156913757324,,,,,
0.5325300000000652,5.68349557541955,-2.9657803598263186,-126.66902382014005,-0.4043721854686737,0.18989545106887817,0.7935613393783569,,,,,
0.5515480000000252,3.555354915131872,-4.616194713720997,-126.084831899318,-0.257218599319458,0.4434497058391571,0.703412652015686,,,,,
0.5610619999999926,2.815052974695524,-5.210341264709218,-126.10031785818393,-0.4871607720851898,0.6366811990737915,0.5108245611190796,,,,,
0.5705709999999726,2.162309543215219,-6.189334611812812,-126.44919907320508,-0.46123605966567993,0.5607395172119141,0.23801809549331665,,,,,
0.5800890000000436,1.8850822033182957,-7.1769532554653805,-127.06056777482601,-0.49862533807754517,0.5492698550224304,0.5690130591392517,,,,,
0.5991129999999885,1.4793001911537145,-9.365256087618523,-128.03581900782223,-0.5008333921432495,0.2677907347679138,0.48842179775238037,,,,,
0.608628000000067,1.2705342493316927,-10.475308136633894,-128.19164691254338,-0.3554809093475342,0.21192654967308044,0.49997514486312866,,,,,
0.6181330000000571,0.840427248682628,-11.395168004264027,-127.98239459270545,-0.3370997905731201,0.10858309268951416,0.24034631252288818,,,,,
0.6276500000000169,0.3292856025175057,-12.541461299062886,-127.67123188209511,-0.17100711166858673,0.07710046321153641,0.1441301703453064,,,,,
0.6371679999999742,-0.2559206452439569,-13.780726694106788,-127.20162640211223,0,0.08242234587669373,0.052434682846069336,,,,,
0.6561669999999822,-1.5224238831166732,-16.474832233621825,-126.512936153562,-0.044030919671058655,0,-0.3109437823295593,,,,,
0.6657010000000128,-2.1339402481586003,-18.02657730729008,-126.48729826109758,0,-0.048738032579422,-0.2032657265663147,,,,,
0.6847139999999854,-3.1292800830917957,-20.751776073316034,-126.7892394618343,-0.027964770793914795,-0.14874039590358734,-0.5505102872848511,,,,,
0.6942139999999881,-3.5536954288732066,-22.034530185746952,-126.80026597730263,0.10610875487327576,-0.16550612449645996,-0.5582852363586426,,,,,
0.7037500000000136,-4.028310229599849,-23.07406495724391,-126.60505637137452,0.10836827754974365,-0.24689924716949463,-0.7438234686851501,,,,,
0.713263999999981,-4.380435101734874,-24.074589420540292,-126.12025464944533,0.132607102394104,-0.23568984866142273,-0.7615612149238586,,,,,
0.7320939999999609,-4.99142329605147,-25.907902793974518,-124.7305889996041,0.17872938513755798,-0.34988832473754883,-0.9373433589935303,,,,,
0.7416050000000496,-4.92810754383042,-26.744595784366286,-124.08840801215838,0.1770957112312317,-0.30336910486221313,-0.8516624569892883,,,,,
0.7511289999999917,-4.845359575881625,-27.63510887037196,-123.56713945134372,0.2845247685909271,-0.40602847933769226,-0.9398397207260132,,,,,
0.7606500000000551,-4.605902720218046,-28.47355860155716,-123.22303287736158,0.37480950355529785,-0.5310555696487427,-1.1050453186035156,,,,,
0.770163000000025,-4.168757234908908,-29.301908104585788,-122.94165919243478,0.44217026233673096,-0.5499691963195801,-1.0585613250732422,,,,,
0.7796730000000025,-3.7824958591224354,-30.13830273112246,-122.57403492382417,0.48462384939193726,-0.676609456539154,-1.14859938621521,,,,,
0.7891700000000128,-3.324505007092247,-30.862601032889632,-122.10036173826644,0.35952872037887573,-0.7195116877555847,-1.1089361906051636,,,,,
0.7987309999999752,-2.852298450761706,-31.406839547015355,-121.53002012456062,0.10006994009017944,-0.7126747369766235,-1.035593032836914,,,,,
0.8082000000000562,-2.3564810437133663,-31.661931261244106,-120.98548578916468,-0.18432864546775818,-0.7023428082466125,-0.9977290630340576,,,,,
0.8368900000000394,-0.05017144976367866,-29.100690245631498,-120.81832327006084,-0.7974529266357422,-0.3759702146053314,-0.21054226160049438,,,,,
0.8464270000000624,0.8080836495463152,-27.009762102160074,-121.53239174372756,-0.7981566190719604,-0.1716640293598175,0.35355144739151,,,,,
0.8559229999999616,1.2842004778384544,-24.44834538032675,-122.55407182926892,-0.7773659229278564,0.0371633805334568,0.9649819135665894,,,,,
0.8654290000000628,1.075239974774327,-21.76288906891821,-123.73145144281585,-0.7205518484115601,0.34635981917381287,1.9239485263824463,,,,,
0.8844490000000178,-2.0389091245793627,-17.42200408553364,-125.18978829435197,-0.32289206981658936,0.5939587950706482,2.607755422592163,,,,,
0.8939659999999776,-4.129252503422732,-16.302808200673816,-125.22174080015192,-0.05798351764678955,1.1039824485778809,3.0175485610961914,,,,,
0.9224970000000212,-11.098671737575069,-17.494492064457514,-122.62238111635088,-0.10840421915054321,1.0516771078109741,1.7901923656463623,,,,,
0.932013999999981,-12.690061448621222,-19.081498141027836,-121.7559889890162,-0.3270016014575958,0.7004356384277344,0.866712212562561,,,,,
0.9415159999999787,-13.343132291992127,-20.942134869826564,-121.23532891556653,-0.5549408197402954,0.6237016916275024,0.6511071920394897,,,,,
0.9510340000000497,-13.575738613956046,-23.031932742441846,-121.16411890492653,-0.5336503982543945,0.4646039605140686,0.5166982412338257,,,,,
0.9700579999999945,-13.32436658584092,-26.557759473554146,-121.36640346469052,-0.2716309726238251,-0.08135412633419037,-0.2066938281059265,,,,,
0.9795639999999821,-13.065543634127012,-28.012078074405796,-120.92584018394228,0,-0.09817568957805634,-0.22480559349060059,,,,,
0.9890940000000228,-13.367072382332454,-29.244683809278143,-119.90790993984007,0.17171430587768555,-0.21974562108516693,-0.5038056969642639,,,,,
0.9986000000000104,-14.00640926272997,-30.338399485675414,-118.44276763959859,0.21149557828903198,-0.30359166860580444,-0.8546135425567627,,,,,
1.017447000000061,-15.721218789528452,-32.93545147375002,-115.00712832079999,0.20068460702896118,-0.3489939570426941,-1.1349149942398071,,,,,
1.0269650000000183,-16.44665638096527,-34.43557309026212,-113.70895031737753,0.0754210352897644,-0.39047855138778687,-1.271967887878418,,,,,
1.0364590000000362,-16.81197597587798,-36.1416036296486,-112.89264804285695,0,-0.45825642347335815,-1.543824553489685,,,,,
1.0459809999999834,-16.646654083550704,-37.95412488448418,-112.42647964073983,0,-0.4237511157989502,-1.4690930843353271,,,,,
1.0649799999999914,-15.689270848089265,-41.079842602090835,-111.88396031708858,-0.05119514465332031,-0.655175507068634,-1.6903374195098877,,,,,
1.0744959999999537,-14.854270888434174,-42.08091644161941,-111.45538299353383,-0.13479381799697876,-0.5867745876312256,-1.505828619003296,,,,,
1.084019000000012,-14.011181461230658,-42.493720512247556,-110.76918686851013,-0.2794530689716339,-0.5655924677848816,-1.426734447479248,,,,,
1.0935379999999668,-12.962112472272137,-42.26025459502032,-110.03646804066416,-0.474811851978302,-0.5541962385177612,-1.396949052810669,,,,,
1.1030419999999594,-11.363349826236814,-41.418790496724746,-109.5975202238187,-0.6663793921470642,-0.421420693397522,-1.0202956199645996,,,,,
1.1125540000000456,-9.282295107610356,-39.98564603873397,-109.79835396631555,-0.7786699533462524,-0.346282422542572,-0.5974920392036438,,,,,
1.1220710000000054,-6.817581595513123,-37.96406902859805,-110.74144081274738,-0.8073335886001587,-0.3155365288257599,-0.22844213247299194,,,,,
1.1412470000000212,-2.066325348237039,-32.48627498350845,-114.33104185036063,-0.6454923748970032,0.036294400691986084,1.0644819736480713,,,,,
1.1507579999999962,-0.9847388657500982,-29.428461270722096,-116.23523924817863,-0.5855327248573303,0.26264122128486633,1.8454052209854126,,,,,
1.160272999999961,-1.4235625016456537,-26.658944813620533,-117.68623750983787,-0.47987955808639526,0.30062586069107056,2.0240767002105713,,,,,
1.1697800000000598,-2.573728967426268,-24.382913502965675,-118.32482908365236,-0.40520116686820984,0.3859528601169586,2.0712523460388184,,,,,
1.1888010000000122,-6.28063781805789,-21.45916359948501,-116.90109054203562,-0.2346944659948349,0.6096734404563904,1.5992450714111328,,,,,
1.1983169999999745,-7.881239817799299,-21.26755544884731,-115.37701932447334,-0.07517293095588684,0.6703124642372131,1.478027105331421,,,,,
1.2078229999999621,-8.953209479924988,-21.742877898586705,-113.8989248850652,0,1.029188871383667,1.8754591941833496,,,,,
1.2173360000000457,-10.255346333225107,-22.731676195922724,-112.9759831433739,-0.12402147054672241,0.6157553791999817,0.7120329141616821,,,,,
1.2268510000000106,-10.813607686984996,-24.478498060344585,-112.69281572187681,-0.2151816487312317,0.5674027800559998,0.7547329664230347,,,,,
1.2363520000000108,-11.182298158399075,-26.63981509389026,-112.89246345351496,-0.2555888295173645,0.3596653342247009,0.5598176121711731,,,,,
1.2458850000000439,-11.409321751908811,-28.732065921781118,-113.3688064747913,-0.37555167078971863,-0.02671860158443451,0.04940974712371826,,,,,
1.2553840000000491,-11.330898664395473,-30.76985074959944,-113.65631059226249,-0.3632717728614807,-0.1350717693567276,-0.11575019359588623,,,,,
1.274405999999999,-12.241094669340848,-34.12099765417726,-112.35940333416625,-0.08132165670394897,-0.27476853132247925,-0.5514324307441711,,,,,
1.2839219999999614,-13.28653906161091,-35.448619703646266,-110.77903857081922,0,-0.2601444125175476,-0.8216471672058105,,,,,
1.302773000000002,-15.825862459071127,-38.33890843579815,-106.73679488942186,0.1278923749923706,-0.2659119963645935,-1.1112834215164185,,,,,
1.3123170000000073,-16.704001545825086,-40.06946511010005,-105.39197512325063,0.053712427616119385,-0.2535242438316345,-1.1547234058380127,,,,,
1.3218299999999772,-17.221214092240693,-42.15353136205842,-104.41190849551485,0,-0.3257502317428589,-1.212268590927124,,,,,
1.3313110000000279,-17.328954910020393,-44.401275077784675,-103.89592156237167,-0.0613560676574707,-0.5030081868171692,-1.3295786380767822,,,,,
1.3408100000000331,-16.905360168972937,-46.569919042437796,-103.86112074120491,-0.17966169118881226,-0.6162137985229492,-1.4262580871582031,,,,,
1.3503309999999829,-16.05447938168638,-48.41296915275671,-103.78281015869709,-0.30731433629989624,-0.6006201505661011,-1.2996697425842285,,,,,
1.3693620000000237,-13.902215758016784,-49.943471640284265,-103.14480539971098,-0.6576099991798401,-0.6351922750473022,-1.3581713438034058,,,,,
1.3788680000000113,-12.209899160792522,-49.32860141526267,-102.96389804055279,-0.8099848628044128,-0.4775131940841675,-1.0469475984573364,,,,,
1.3883690000000115,-9.979156019262463,-47.82621082032777,-103.19532827911004,-0.8892431855201721,-0.4143270254135132,-0.7699273824691772,,,,,
1.3978690000000142,-7.052896453209603,-45.592532105960785,-104.24023149570907,-0.8419894576072693,-0.38472315669059753,-0.46751976013183594,,,,,
1.4075619999999844,-3.5450131034864345,-42.70560242101163,-106.29960485770168,-0.7240626811981201,-0.2666149437427521,0.037506937980651855,,,,,
1.4265790000000607,2.8740601367740783,-35.32448174914016,-111.54041835837714,-0.5887994766235352,0.03640853986144066,1.007259488105774,,,,,
1.4360890000000381,4.5292379606922575,-31.295160479971276,-114.04378049502841,-0.694680392742157,0.3070070147514343,1.9457091093063354,,,,,
1.445607999999993,4.359659214059143,-27.5492887601531,-116.00078152973407,-0.687950849533081,0.22729578614234924,2.047619342803955,,,,,
1.4551099999999906,3.422634659987235,-24.444986199395085,-116.92649931855118,-0.5408770442008972,0.5104615688323975,2.379115581512451,,,,,
1.4646229999999605,1.3942982681247114,-22.17755520524779,-116.75411857331906,-0.14508675038814545,0.9080624580383301,3.015256881713867,,,,,
1.4741249999999582,-1.824034907204117,-20.910293465076258,-115.65454211094396,0.29421040415763855,0.36965373158454895,1.9266409873962402,,,,,
1.4836360000000468,-4.024775415540527,-20.83907924339823,-113.86612407496895,0.5386409759521484,0.7020100355148315,1.8033483028411865,,,,,
1.4931609999999864,-5.991607945277413,-21.87864478872609,-111.93491737416164,0.4412063658237457,1.091254472732544,1.9149768352508545,,,,,
1.5026739999999563,-8.120562963740834,-23.92507887597932,-110.45700432498423,0,0.7668078541755676,1.0104467868804932,,,,,
1.5121840000000475,-9.338773965472921,-26.848471428581778,-109.77438276900146,-0.5077246427536011,0.832496702671051,1.1787497997283936,,,,,
1.5216990000000123,-10.154393599656068,-30.045719347054614,-110.0596150185293,-0.8676890134811401,0.5316677689552307,0.6908230185508728,,,,,
1.5407270000000608,-9.881916093549005,-35.78975239003427,-111.77086452667052,-0.7808524966239929,-0.060038283467292786,0.10655993223190308,,,,,
1.5502139999999827,-9.811430816843455,-38.01136753618634,-111.95313566889395,-0.3282811939716339,-0.4185555577278137,-0.48963966965675354,,,,,
1.5597300000000587,-10.07173094485779,-39.746321986795735,-110.98364655222771,0,-0.3066084086894989,-0.45903319120407104,,,,,
1.5692530000000033,-11.427163029147701,-41.37387483256954,-108.83695215250036,0.2862969636917114,-0.34632253646850586,-0.816411554813385,,,,,
1.5785700000000134,-13.50114568069485,-43.09723874039893,-105.90513937352189,0.3989374041557312,-0.4670180678367615,-1.1812231540679932,,,,,
1.5975980000000618,-17.819045577161805,-47.14336261096503,-99.95799164345175,-0.03718447685241699,-0.4223068952560425,-1.386238694190979,,,,,
1.6071249999999964,-19.186876996348637,-49.6088887627246,-97.92678586830324,-0.28807851672172546,-0.3562699556350708,-1.4111101627349854,,,,,
1.6166349999999738,-19.65944590854294,-52.16970948652489,-96.88448209528165,-0.48953935503959656,-0.31218624114990234,-1.3055529594421387,,,,,
1.626121000000012,-19.422041471256144,-54.510141719678266,-96.59535989349233,-0.5869078636169434,-0.5980662107467651,-1.6767624616622925,,,,,
1.6356409999999642,-18.23614981342966,-56.264944128188766,-96.63462309281724,-0.6377497315406799,-0.683965802192688,-1.595605731010437,,,,,
1.6546580000000404,-14.992411371038221,-56.78169720908596,-96.16611605851303,-0.7898617386817932,-0.6459957957267761,-1.5111746788024902,,,,,
1.6737000000000535,-10.385203035286127,-53.65240364780302,-95.8030098053812,-0.9548527598381042,-0.37874066829681396,-0.7148216366767883,,,,,
1.6832210000000032,-6.860690275999047,-51.01676770614031,-96.92105237205861,-0.9721019864082336,-0.33769547939300537,-0.42230114340782166,,,,,
1.6929039999999986,-2.5403151761157337,-47.931234549799576,-99.05165280262669,-0.8580213189125061,-0.2618751525878906,0,,,,,
1.721416999999974,7.930766524725218,-36.15657121309079,-107.70765102275081,-0.7274787425994873,0.3023422360420227,1.9401572942733765,,,,,
1.7309270000000652,7.988578017097631,-32.409533614476665,-109.72150148555352,-0.67364102602005,0.25833937525749207,2.078408718109131,,,,,
1.7499520000000075,4.128267562777786,-26.93866684692319,-110.35126971875421,-0.3012418746948242,0.8649176955223083,2.996028423309326,,,,,
1.76896899999997,-3.0467013993274024,-24.879502830888182,-107.70999192570908,0.28914421796798706,0.7641568183898926,1.5181849002838135,,,,,
1.7879900000000362,-8.411624125513379,-26.600733272716962,-105.16326738459742,0.1590895652770996,0.8775532245635986,0.9027738571166992,,,,,
1.797506999999996,-9.806962104636442,-28.934268603766405,-104.98163378298564,-0.2703104019165039,0.9060803651809692,0.8478634357452393,,,,,
1.8070149999999785,-10.444596438374221,-31.895079798064547,-105.6990990048962,-0.6382154226303101,0.6386185884475708,0.6535694003105164,,,,,
1.8260569999999916,-9.34957251334028,-37.503026381737264,-107.88899511119455,-0.8482992053031921,-0.04476107656955719,0.23592621088027954,,,,,
1.835550000000012,-8.929198593589529,-39.57400555530912,-107.84779874360179,-0.5410990118980408,-0.44221994280815125,-0.31682640314102173,,,,,
1.845056999999997,-8.90554011592851,-41.089404666277666,-106.61638891033215,-0.18381306529045105,-0.41298383474349976,-0.4243578314781189,,,,,
1.854592000000025,-9.90813727877384,-42.340209381987385,-104.3327460162981,0.11121881008148193,-0.2963327467441559,-0.4610397517681122,,,,,
1.8639020000000528,-11.869902440841164,-43.65640394794248,-101.35160905325858,0.34620898962020874,-0.568233847618103,-1.1772663593292236,,,,,
1.8736020000000053,-13.614013455635888,-45.23073626397095,-98.23687216562841,0.35731661319732666,-0.40903568267822266,-0.959665060043335,,,,,
1.8829279999999926,-15.21363344527046,-47.179547883045316,-95.50853720743886,0.22834593057632446,-0.4301230311393738,-1.1430338621139526,,,,,
1.8924500000000535,-16.130412656055775,-49.54071756501251,-93.62410352462464,0,-0.38504642248153687,-1.125049114227295,,,,,
1.9019610000000284,-16.284863251976336,-52.15951177863897,-92.44851629142035,-0.22712981700897217,-0.4211568832397461,-1.178013563156128,,,,,
1.911465000000021,-15.72240853115358,-54.648955744827475,-91.86601223493682,-0.41092488169670105,-0.609673023223877,-1.3255538940429688,,,,,
1.9209970000000567,-14.520301496056595,-56.52169861135146,-91.66404503049026,-0.6224200129508972,-0.6557472944259644,-1.2561525106430054,,,,,
1.9400120000000243,-11.973437094809332,-57.44503859245585,-90.68731959665757,-0.9464579224586487,-0.6772897243499756,-1.120888113975525,,,,,
1.949516000000017,-10.418787880674703,-56.40930984352313,-89.97400421394924,-1.0454072952270508,-0.5505024194717407,-0.8663867712020874,,,,,
1.9590339999999742,-8.176142845299005,-54.60367921114138,-89.84874635427573,-1.0526750087738037,-0.4444429278373718,-0.5355626940727234,,,,,
1.9685460000000603,-5.018029762054234,-52.243074377990744,-90.79319467811024,-0.9063445329666138,-0.3717357814311981,-0.17582136392593384,,,,,
1.987745000000018,2.819175543522721,-45.990493970416686,-95.73517043041866,-0.5210968255996704,-0.23206868767738342,0.5234074592590332,,,,,
1.9972340000000486,6.192487482639337,-42.346898557361044,-98.81202500076205,-0.3844314217567444,-0.09928552061319351,0.9480021595954895,,,,,
2.0067619999999806,8.274258375447758,-38.6527011879019,-101.5144864255799,-0.4041700065135956,0.056877024471759796,1.4529876708984375,,,,,
2.0162540000000035,8.544960081087105,-35.30303250511768,-103.42848414283007,-0.44990113377571106,0.21390673518180847,1.9832828044891357,,,,,
2.025769999999966,7.208711539186444,-32.57146104223711,-104.43418150972515,-0.4007950723171234,0.12816520035266876,1.7072720527648926,,,,,
2.0352810000000545,5.2295570610869575,-30.52178996427741,-104.45771668803478,-0.2897590398788452,0.7258866429328918,2.524789810180664,,,,,
2.0447860000000446,1.8259163910816645,-29.219871459591374,-103.67736190796354,-0.038723379373550415,0.7915199995040894,2.242629289627075,,,,,
2.063801000000012,-4.522783474351637,-29.34365491794057,-100.69824508742273,0.3412504196166992,0.9335318803787231,1.6266924142837524,,,,,
2.073323999999957,-7.1012211795881655,-30.704502246296723,-99.35091779418622,0.12985777854919434,0.9520828723907471,1.1347291469573975,,,,,
2.08284900000001,-9.133822035997934,-32.86884406452519,-98.86223229694143,-0.22485017776489258,0.6541277170181274,0.6060770750045776,,,,,
2.092345000000023,-10.078448450889006,-35.547526683582525,-98.89492261007611,-0.5329257845878601,0.6563482284545898,0.7812212705612183,,,,,
2.1113729999999578,-10.556254072935898,-40.747091837166124,-99.49572049179437,-0.7138974666595459,-0.043153077363967896,0,,,,,
2.1303890000000365,-10.934123818237923,-44.70742399138181,-97.41918922658284,-0.2513386011123657,-0.32507771253585815,-0.3832891583442688,,,,,
2.139906999999994,-11.983688554665964,-46.19498143903646,-95.44386395005706,-0.08901000022888184,-0.2707834243774414,-0.4882032871246338,,,,,
2.1494310000000496,-13.704465456546451,-47.58686115053548,-92.77529074931017,0,-0.3757491111755371,-0.8359489440917969,,,,,
2.158755000000042,-15.382690352512906,-48.9851775928443,-89.81044123906196,-0.040631771087646484,-0.3578130006790161,-0.9053444862365723,,,,,
2.1682839999999715,-16.687261501420668,-50.46913541258966,-87.25096004567578,-0.17695081233978271,-0.357685923576355,-0.8990523815155029,,,,,
2.1778170000000046,-17.315392720386928,-52.08042610055961,-85.43284069904466,-0.286793053150177,-0.5125072002410889,-1.1758644580841064,,,,,
2.1873299999999745,-16.650202329264026,-53.724207618124176,-84.41658565818169,-0.36145466566085815,-0.46613070368766785,-1.1449648141860962,,,,,
2.1967859999999746,-15.014110286213,-55.189479562845456,-84.1866549159659,-0.41000792384147644,-0.4238628149032593,-0.9603093862533569,,,,,
2.2063210000000026,-12.98736872152956,-56.235242560598174,-84.43745755136231,-0.42322853207588196,-0.6901171207427979,-1.251052737236023,,,,,
2.2158729999999878,-10.535033905528618,-56.67943876311361,-84.78020288205971,-0.4804646670818329,-0.6750496029853821,-1.107275128364563,,,,,
2.2253409999999576,-8.210599401535243,-56.465423849795904,-84.86975333898242,-0.5618526935577393,-0.5882401466369629,-0.798271894454956,,,,,
2.234841999999958,-6.213835480374425,-55.652613737530615,-84.7084869482693,-0.6256601214408875,-0.6526541113853455,-0.8234220743179321,,,,,
2.2540460000000166,-1.435634022607517,-52.64379154657222,-85.07119949320528,-0.7000393867492676,-0.40447917580604553,-0.13776880502700806,,,,,
2.2730750000000626,4.339823093760858,-48.15631475539952,-88.0495494008978,-0.5576015710830688,-0.35134536027908325,0.33093881607055664,,,,,
2.301590000000033,9.40796980436073,-39.78019817069285,-94.66419199784349,-0.4726231098175049,0.04437035322189331,1.540142297744751,,,,,
2.311099000000013,8.535024228748329,-37.18294510886023,-95.72467059646412,-0.4366168975830078,0.07224106788635254,1.5591453313827515,,,,,
2.3301179999999704,4.906852566150338,-33.08037810524513,-95.66393566355309,-0.574186384677887,0.7027290463447571,2.0091092586517334,,,,,
2.349142000000029,-0.3695783862351706,-30.52322036567288,-94.48972877113772,-0.3505362570285797,0.597993016242981,1.398827314376831,,,,,
2.358653000000004,-2.3052414642653707,-30.125649947298612,-94.02736575303952,-0.056620627641677856,0.7926830649375916,1.5179990530014038,,,,,
2.3776659999999765,-5.437234721802474,-31.17078234103118,-93.71789666142139,0.3605266809463501,0.4844730496406555,0.6347519755363464,,,,,
2.387185000000045,-6.332541362505712,-32.612571763198794,-93.61219202526784,0.24861598014831543,0.35967326164245605,0.4531947374343872,,,,,
2.3967010000000073,-7.160619355944343,-34.52919063949584,-93.33523726982727,0,0.0839807540178299,0.40714573860168457,,,,,
2.4062300000000505,-7.853971864414846,-36.467726335084244,-92.90797865052524,-0.33267465233802795,-0.15647955238819122,0.13003796339035034,,,,,
2.4252589999999827,-8.926125879182747,-39.82723136578568,-91.10115756364688,-0.7235984802246094,-0.13794411718845367,0.1976313591003418,,,,,
2.4347420000000284,-10.116777772471055,-41.08018884270563,-90.07530199840839,-0.6343590021133423,-0.4648314118385315,-0.38620102405548096,,,,,
2.4535849999999755,-12.105759641126447,-42.87218869791157,-88.08734880335186,-0.24746927618980408,-0.508446455001831,-0.7869061231613159,,,,,
2.4631100000000288,-12.956126873158757,-43.65425216508157,-87.27553577979856,-0.02708303928375244,-0.5797157287597656,-1.1016266345977783,,,,,
2.472603000000049,-13.378692954641053,-44.384188072937576,-86.56782727086292,0.08477044105529785,-0.5621765851974487,-1.168142557144165,,,,,
2.4823149999999714,-13.423763111108785,-45.135017413538506,-85.91555996784787,0.15060782432556152,-0.562558114528656,-0.9111056327819824,,,,,
2.510707000000025,-11.939482821120423,-47.61127991351864,-84.43549823268539,-0.08127129077911377,-0.4587840735912323,-1.0156949758529663,,,,,
2.52016900000001,-11.544375043774952,-48.39272439434594,-84.01621364338584,-0.24900630116462708,-0.44951170682907104,-0.8717471957206726,,,,,
2.5296919999999545,-11.52746418661023,-48.827621528136085,-83.68309953087348,-0.40677401423454285,-0.5052575469017029,-0.7488241195678711,,,,,
2.5393810000000485,-11.821856245755434,-48.727544990514986,-83.35026628577985,-0.5359178185462952,-0.49167051911354065,-0.4622408151626587,,,,,
2.5488729999999578,-12.450819978767388,-48.158943597307946,-82.92901060431019,-0.6122879981994629,-0.3870919644832611,-0.09906339645385742,,,,,
2.567908999999986,-14.057995376618255,-46.07731785737871,-82.90742714363849,-0.5741211771965027,0.026058003306388855,0.7162473797798157,,,,,
2.577413999999976,-14.768710288196196,-44.71475630679971,-83.60210937115528,-0.5869292616844177,0.19903108477592468,1.121894359588623,,,,,
2.5964270000000624,-16.008524897478868,-42.1325626620866,-85.71173322582061,-0.5278143882751465,0.27586448192596436,1.5860707759857178,,,,,
2.6154430000000275,-16.779619768115964,-40.270588142084954,-86.67055449560497,-0.3803635835647583,0.3548356592655182,1.8364969491958618,,,,,
2.624960999999985,-17.473060343589648,-39.66355249131418,-86.37582500572941,-0.2848833501338959,0.14538134634494781,1.616528034210205,,,,,
2.643982000000051,-18.915236917708324,-38.969985319862566,-84.31731357118059,0,0,1.3500854969024658,,,,,
2.6535049999999956,-19.93083804581339,-38.836997026067316,-83.32364675269416,0.027395546436309814,0.05144578218460083,1.3257300853729248,,,,,
2.6630079999999907,-21.64991770926655,-39.06433704753909,-82.5498604454261,0.10995066165924072,-0.2799564301967621,0.5270168781280518,,,,,
2.6725119999999833,-23.37900442243385,-39.68604326124704,-81.93854494419078,-0.04704159498214722,-0.4098833203315735,0.23099631071090698,,,,,
2.6820320000000493,-24.909291802888816,-40.72128370601834,-81.42402943406852,-0.1672392189502716,-0.11813318729400635,0.6216369867324829,,,,,
2.6915629999999737,-27.040272099030634,-41.89675035771342,-81.06164766247308,-0.3376053273677826,-0.21339985728263855,0.04244273900985718,,,,,
2.7105510000000095,-30.989662487251778,-43.99988513543858,-80.20642853600015,-0.4315991699695587,-0.30028197169303894,-0.3295955955982208,,,,,
2.7389269999999897,-35.34460019197942,-45.925390314213544,-77.38278367951236,-0.14332503080368042,0,-1.002703309059143,,,,,
2.748512000000005,-36.32903898233782,-46.59305357441547,-76.73706368069632,0.07406604290008545,0,-1.1604253053665161,,,,,
2.767455000000041,-37.34220054777141,-48.33014988897522,-74.9397133596135,0.3473244905471802,-0.027658849954605103,-1.1965582370758057,,,,,
2.7866470000000163,-37.92053880760013,-50.489092354262354,-71.65777265821836,0.3271760940551758,-0.1166088879108429,-1.0341434478759766,,,,,
2.7961689999999635,-38.25486318441294,-51.43478149497914,-69.81995263367558,0.18305814266204834,-0.19876012206077576,-0.6540399789810181,,,,,
2.8056890000000294,-38.78803987604186,-52.2555093854093,-67.75846869623393,-0.15666437149047852,-0.25328075885772705,-0.5693871378898621,,,,,
2.815191000000027,-39.52936873804194,-52.953926924986405,-65.08461030155273,-0.1999427080154419,-0.3624022901058197,-0.5295557975769043,,,,,
2.8342179999999644,-40.72104832968951,-53.29156140529033,-59.297493556235246,-0.3711106479167938,-0.15925779938697815,-0.2424120157957077,,,,,
2.8437569999999823,-41.68744425552763,-53.308738909862086,-56.94920280320724,-0.19072991609573364,-0.2509087324142456,-0.8128894567489624,,,,,
2.8532350000000406,-42.396912545555686,-53.23245733305658,-54.57615873156921,-0.3470689058303833,-0.10293662548065186,0,,,,,
2.862736000000041,-43.276050529347046,-53.31050805689155,-52.20484729947823,-0.4801323413848877,0.029915720224380493,-0.025999903678894043,,,,,
2.8720930000000635,-43.97200127465658,-53.55191130892201,-50.21720715130842,-0.8728010654449463,0.17602956295013428,0.6722188591957092,,,,,
2.8815720000000056,-44.12545957950098,-54.00916508661997,-48.96482834749815,-1.179349422454834,0.3908068835735321,1.480237603187561,,,,,
2.8910849999999755,-43.60376178696384,-54.613849783979084,-48.672917165176415,-1.2226003408432007,0.5415728092193604,2.732283592224121,,,,,
2.910288000000037,-39.39674941545543,-55.45327522132128,-51.22363804101873,-0.6473572254180908,0.19640624523162842,2.4994261264801025,,,,,
2.919787000000042,-36.66611322844171,-55.47173254505844,-52.71252886400538,0,0,2.2336113452911377,,,,,
2.9388139999999794,-33.561236155462176,-54.14663156194813,-53.640898292341085,0.490641713142395,-0.32491666078567505,1.2163100242614746,,,,,
2.9483300000000554,-34.23573719613817,-53.702424578471295,-51.98878225938006,0.645515501499176,-0.5462407469749451,0.6393622159957886,,,,,
2.9578350000000455,-35.221905887176106,-53.29027111439044,-49.77839032773877,0.3030751347541809,-0.291992723941803,0.8512461185455322,,,,,
2.9673589999999876,-36.69030947825686,-53.21505589317379,-47.44499459231421,-0.13460683822631836,-0.029120028018951416,0.7578989267349243,,,,,
2.976878000000056,-38.55541560790457,-53.63291465287196,-45.21334047092724,-0.36660897731781006,-0.2389177680015564,0.24834203720092773,,,,,
2.9863860000000386,-39.63866935597619,-54.297563796220864,-43.47609955000225,-0.5339920520782471,-0.12204605340957642,0.1016298234462738,,,,,
2.9958930000000237,-40.45769282234686,-55.19658662191472,-42.22065980469369,-0.5020656585693359,-0.10035067796707153,0.042858242988586426,,,,,
3.0149240000000646,-42.577156820483665,-57.016730375763096,-39.97143110685323,0,-0.3133046627044678,-0.4279874861240387,,,,,
3.0244179999999687,-44.41507835529254,-57.573580529902614,-38.29224824470528,0.12715744972229004,-0.3334994316101074,-0.7485247850418091,,,,,
3.0339290000000574,-47.12960211869479,-57.94590069826376,-35.51082336658741,0.14174336194992065,-0.3474459946155548,-0.9168833494186401,,,,,
3.04344100000003,-50.31736878339112,-58.086724991864145,-32.29705459293781,-0.06427603960037231,-0.24155515432357788,-0.9538711905479431,,,,,
3.0527819999999792,-53.636964204129654,-58.114664151541284,-28.926240165154212,-0.4010099172592163,-0.19283440709114075,-1.2630544900894165,,,,,
3.0813140000000203,-60.25825966960817,-58.87920335691737,-20.5420612497596,-1.0143295526504517,-0.12618818879127502,-1.5569028854370117,,,,,
3.090812000000028,-60.26915125236146,-59.28878081458069,-19.30733719664452,-1.101210117340088,-0.1712632179260254,-1.535705327987671,,,,,
3.109835999999973,-55.97236270942383,-59.46850251195172,-20.62273402229273,-1.2636053562164307,-0.19876569509506226,-1.2248332500457764,,,,,
3.1193590000000313,-51.84868027337491,-58.99400963953869,-23.1479323088514,-1.275468349456787,-0.18311351537704468,-0.8476334810256958,,,,,
3.1383839999999736,-41.24684131341025,-56.68845025021813,-30.877342834077698,-1.0317460298538208,-0.12602180242538452,0.1111396849155426,,,,,
3.1480940000000146,-35.73130739432077,-54.95975601443484,-35.37634633206823,-0.8303170800209045,-0.04262852668762207,0.64445960521698,,,,,
3.157562999999982,-30.780510792629805,-52.99900663607407,-39.89075844710016,-0.617412805557251,0.08413305878639221,1.3646495342254639,,,,,
3.167081000000053,-26.842068457156753,-50.91371557593759,-43.998170668385384,-0.4571024179458618,0.17290520668029785,2.088113784790039,,,,,
3.1765930000000253,-24.086442029268706,-48.89325778946144,-47.20772558424296,-0.29748404026031494,0.23442450165748596,2.6139886379241943,,,,,
3.1861089999999876,-22.532549296874564,-47.054651297164774,-49.336392419064445,-0.1715480089187622,0.2240450084209442,2.8041892051696777,,,,,
3.195607999999993,-21.882412355301803,-45.439514135217976,-50.37427156450405,-0.09884250164031982,0.13934454321861267,2.655916929244995,,,,,
3.2051310000000512,-21.707910775390673,-44.12338015959145,-50.45008554156132,-0.037625670433044434,0.22339515388011932,2.515847682952881,,,,,
3.214631000000054,-22.074544895591334,-43.123665447365454,-49.78262315031094,0.0479736328125,0.21706730127334595,2.288726806640625,,,,,
3.224148000000014,-22.783057428534267,-42.46101266167197,-48.38934301471793,0.13454920053482056,0.0815749317407608,1.6180592775344849,,,,,
3.233663999999976,-23.378430198853227,-42.24308179880299,-46.4993418102112,0.18372291326522827,0.07744832336902618,1.317126750946045,,,,,
3.2431669999999713,-24.08288952088192,-42.54307679114087,-44.56745897010958,0.17326414585113525,0.1565614938735962,1.2391161918640137,,,,,
3.25268200000005,-25.253196325399358,-43.30780057609375,-42.85850470143723,0.03928506374359131,-0.20575043559074402,0.4296641945838928,,,,,
3.2717079999999896,-27.40493179973768,-45.90473942594619,-39.11243292055464,-0.38561028242111206,-0.2781790494918823,0.3205716609954834,,,,,
3.2810490000000527,-28.856674611522465,-47.283821657631165,-37.02723286222346,-0.5207501649856567,-0.45995548367500305,-0.17057952284812927,,,,,
3.2905450000000656,-30.217052170176412,-48.48311818350244,-34.71442909682651,-0.5757939219474792,-0.24028664827346802,-0.035951435565948486,,,,,
3.3000729999999976,-32.14792358499371,-49.495895911871834,-32.33440847457037,-0.45393678545951843,-0.2954074442386627,-0.4039272964000702,,,,,
3.3097770000000537,-34.26126565791821,-50.29362983174268,-29.86221713172416,-0.2874789834022522,-0.34458839893341064,-0.7445447444915771,,,,,
3.3192840000000388,-36.35078082261849,-50.98149776781014,-27.319772401231514,-0.1499210000038147,-0.20276933908462524,-0.7891988158226013,,,,,
3.328591999999958,-38.59027999656039,-51.71392390514454,-24.60677591106784,0,-0.2517296373844147,-1.185330867767334,,,,,
3.347613000000024,-42.56619795091446,-53.54825012997005,-18.61726689477742,0,-0.19174706935882568,-1.3825352191925049,,,,,
3.356934000000024,-44.35149659397834,-54.676777404890714,-15.467983886299617,-0.14744138717651367,-0.23613640666007996,-1.5291377305984497,,,,,
3.3666279999999915,-45.82681054992212,-55.8464720209291,-12.40659824217942,-0.3786861002445221,-0.23211780190467834,-1.4475589990615845,,,,,
3.3761540000000423,-46.781414912728025,-56.86173910402814,-9.647890687086052,-0.6927816867828369,-0.28380364179611206,-1.4399210214614868,,,,,
3.385658000000035,-46.801014139818044,-57.56586845337881,-7.77892464172714,-1.0551949739456177,-0.25146928429603577,-1.3480128049850464,,,,,
3.395183999999972,-45.72187385948386,-57.915185467715695,-7.164436820365169,-1.346128225326538,-0.22066277265548706,-1.1364880800247192,,,,,
3.404764,-43.30637894217785,-57.85415706371037,-7.944894452489065,-1.5127015113830566,-0.18399539589881897,-0.866880476474762,,,,,
3.4142689999999902,-39.481879605930466,-57.318228427551546,-10.172991787247568,-1.5240304470062256,-0.11305391788482666,-0.4114178419113159,,,,,
3.423718000000008,-34.587218718479136,-56.269682933000354,-13.65617899022941,-1.3849220275878906,-0.06518420577049255,0.04906311631202698,,,,,
3.4332180000000108,-29.15525521750233,-54.700633424181895,-18.04822472954017,-1.168577790260315,0,0.6614857912063599,,,,,
3.4524059999999963,-19.437859866645475,-50.39404321080932,-26.585044752965363,-0.7412184476852417,0.20215095579624176,2.18070650100708,,,,,
3.4619109999999864,-16.206078482577492,-48.093463009788785,-29.779369285954253,-0.4224242568016052,0.32918795943260193,2.9089808464050293,,,,,
3.4904470000000174,-13.791271201274682,-42.78044770542129,-33.03739338790848,0.49619829654693604,0.2245807647705078,2.6145732402801514,,,,,
3.4999540000000025,-14.817423499997567,-42.20334855001842,-31.76667837774877,0.6068450212478638,0.08363997936248779,2.0688180923461914,,,,,
3.5189890000000332,-18.21071698987105,-43.08654519000834,-26.557431496000905,0.08480292558670044,0.17172566056251526,1.4810136556625366,,,,,
3.5378259999999955,-22.967313229048596,-45.472365100576965,-20.39139064706643,-0.7065613269805908,-0.0774054229259491,0.4958711266517639,,,,,
3.547345000000064,-24.929555288877225,-46.93233463169597,-18.08831634149471,-0.8796428442001343,0,0.5060172080993652,,,,,
3.5570370000000366,-26.873619736592506,-48.42326261744378,-16.41108203548984,-0.8025082945823669,-0.1704367697238922,0.1031985878944397,,,,,
3.5855890000000272,-33.22687392907894,-52.02240857771844,-10.983567362375833,-0.07071679830551147,-0.280719131231308,-0.614598274230957,,,,,
3.604602,-39.552961108916136,-53.70186555520066,-3.989408121204488,0,-0.14491239190101624,-0.9290175437927246,,,,,
3.613929999999982,-43.07501032256396,-54.56035745000789,0.06957264408639731,-0.07696712017059326,-0.1164369285106659,-1.1088438034057617,,,,,
3.6234430000000657,-46.43030874675728,-55.52448511724314,4.113276539618932,-0.23057836294174194,-0.07483556866645813,-1.216416358947754,,,,,
3.632938999999965,-49.50927300086401,-56.65963935082958,7.961461995469632,-0.4002417325973511,-0.11392822861671448,-1.4122123718261719,,,,,
3.6424560000000383,-52.17665320660763,-57.946190759457345,11.527552054492828,-0.5607359409332275,-0.16454210877418518,-1.4502737522125244,,,,,
3.6519700000000057,-54.28418562170145,-59.213745885892614,15.044221883447689,-0.7423484325408936,-0.2314957082271576,-1.5011600255966187,,,,,
3.670979999999986,-55.855866029387265,-60.98058767739787,20.18440602581884,-1.2071847915649414,-0.2869625389575958,-1.4250435829162598,,,,,
3.6805060000000367,-54.74046504288875,-61.30853840305903,20.94510910511479,-1.3919740915298462,-0.26714974641799927,-1.248842477798462,,,,,
3.6995220000000018,-47.63692559514009,-60.88037461700501,17.54978119978781,-1.4234943389892578,-0.15985003113746643,-0.5697858929634094,,,,,
3.7185819999999694,-35.439350677226365,-59.04297791363646,8.31098068741852,-1.0707056522369385,0,0.6228523254394531,,,,,
3.7280419999999594,-28.964268186442773,-57.51238395106351,2.777664534224703,-0.9231776595115662,0.1027478277683258,1.3944239616394043,,,,,
3.747261999999978,-19.23349978506003,-53.63328328534686,-6.502576952203344,-0.3978455066680908,0.31069064140319824,3.1823153495788574,,,,,
3.7567599999999857,-17.061592815684183,-51.64836540800881,-9.277534043323532,0.08899277448654175,0.1713034063577652,3.1940221786499023,,,,,
3.7757780000000594,-16.853111750741228,-48.745816078522296,-10.099719567897942,0.7404795289039612,0.280750036239624,2.6555445194244385,,,,,
3.785286000000042,-18.776356754581965,-48.27636056836075,-8.086810021747949,0.7539651989936829,0.13593178987503052,1.9767124652862549,,,,,
3.7948089999999866,-21.330781366101327,-48.426320651252816,-4.975724437199056,0.4930959939956665,0.1238035261631012,1.5446500778198242,,,,,
3.8043099999999868,-24.053740298973313,-49.00906016173822,-1.4735177528136403,0.03497886657714844,0.20735067129135132,1.1810007095336914,,,,,
3.813823999999954,-26.683030014634188,-49.92084117880062,1.756820803808398,-0.45458999276161194,0.2691057622432709,0.902198076248169,,,,,
3.8326789999999846,-30.585709222344523,-52.48908111952469,6.006520701859438,-0.9526441097259521,0,0.1896997094154358,,,,,
3.85187099999996,-32.32020485039615,-54.942262589398666,8.162545372999977,-0.6508023142814636,-0.3352798521518707,-0.3221002221107483,,,,,
3.8613719999999603,-33.096809195026935,-55.75960841463885,9.32249733035529,-0.3944249749183655,-0.3690875768661499,-0.37755709886550903,,,,,
3.8709109999999782,-34.34852189828414,-56.29697543409643,10.917040677833231,-0.17348313331604004,-0.4294092059135437,-0.5650900602340698,,,,,
3.8804250000000593,-35.998910573530885,-56.639585830045526,13.240247787293466,-0.07504153251647949,-0.4310193359851837,-0.717746376991272,,,,,
3.889915999999971,-37.85912150207287,-56.95334641818623,16.08049344904715,-0.07218748331069946,-0.39836910367012024,-0.9183436632156372,,,,,
3.8994460000000117,-39.53105219418107,-57.3937694140302,18.954997683674833,-0.13638275861740112,-0.23467504978179932,-0.8414101600646973,,,,,
3.908952999999997,-41.047220723337034,-58.055040030228724,21.569720334891713,-0.2447880506515503,-0.19829457998275757,-0.9026288390159607,,,,,
3.9182819999999765,-42.25311439433967,-58.96168513464964,23.90250750355009,-0.33577853441238403,-0.3198893368244171,-1.138707160949707,,,,,
3.92780700000003,-42.899828433693244,-60.025055885466536,25.92562131364448,-0.4186534583568573,-0.2833658456802368,-1.0417453050613403,,,,,
3.937340000000063,-43.278066964173085,-61.05694272096656,27.607324169868086,-0.511211633682251,-0.3481345772743225,-1.0187439918518066,,,,,
3.956352000000038,-43.11467823010767,-62.32732231439375,30.439627559111713,-0.8328365087509155,-0.38597729802131653,-0.8421231508255005,,,,,
3.9658490000000484,-42.400653111314945,-62.42156465247924,31.627960513677866,-1.0024480819702148,-0.3411804139614105,-0.6614798903465271,,,,,
3.984839999999963,-38.40155274959341,-61.758373558749724,31.15455795120486,-1.131224513053894,-0.21437644958496094,-0.06973665952682495,,,,,
3.994356000000039,-34.85386446122999,-61.202289033780445,28.966229934066607,-1.0263017416000366,-0.16289302706718445,0.35153868794441223,,,,,
4.0038809999999785,-30.41977561910797,-60.49826764816929,25.50237076098884,-0.8839144110679626,-0.05088317394256592,0.9792228937149048,,,,,
4.023070999999959,-21.493274424142598,-58.557940615888924,16.644246221327208,-0.4426524043083191,0.1685009002685547,2.212298631668091,,,,,
4.032576000000063,-18.431387727257384,-57.36274557626628,12.76915596407844,-0.1380428671836853,0.2733651101589203,2.6363444328308105,,,,,
4.042085000000043,-17.151808739499536,-56.17628582302778,10.109478832430543,0.19368839263916016,0.2048175036907196,2.5750441551208496,,,,,
4.0516059999999925,-17.385750959931233,-55.13746659647892,9.047427750294524,0.44011902809143066,0.10436232388019562,2.0553174018859863,,,,,
4.070613999999978,-21.261980008834445,-53.93893934106171,11.907214324566826,0.45177900791168213,0.32417237758636475,1.4673174619674683,,,,,
4.080134000000044,-24.083281391183764,-53.76876933352828,14.736407754936103,0.1897687315940857,0.3457816541194916,1.1081091165542603,,,,,
4.089641000000029,-26.739005084354663,-53.885310183814774,17.726070231130123,-0.14571291208267212,0.377573698759079,0.8980902433395386,,,,,
4.099170999999956,-28.955702615134104,-54.31803333597939,20.118284037412824,-0.4302578568458557,0.1778288334608078,0.41953980922698975,,,,,
4.108682000000044,-30.123641323446915,-55.049395938214815,21.722092019323004,-0.6111283302307129,0.09897869825363159,0.1816697120666504,,,,,
4.1181850000000395,-30.509531364253814,-55.993570663228745,22.715072134550468,-0.650234580039978,0.13539636135101318,0.36617177724838257,,,,,
4.137203999999997,-30.884913273156315,-57.78611138775684,24.24790583079457,-0.40186890959739685,-0.39737167954444885,-0.25230738520622253,,,,,
4.146731000000045,-31.387014399524237,-58.3886958501649,25.589772842971577,-0.2520061135292053,-0.5058984756469727,-0.4130335748195648,,,,,
4.1562300000000505,-32.404609145439004,-58.77950995571709,27.823629913429745,-0.13283324241638184,-0.642662763595581,-0.9158176183700562,,,,,
4.17526799999996,-35.15674501025416,-59.370583099717244,33.810091571888954,-0.15497612953186035,-0.3282301127910614,-0.8251581192016602,,,,,
4.18458499999997,-36.59553246989008,-59.78917462540334,37.1431654022436,-0.25896328687667847,-0.4136485457420349,-1.1414865255355835,,,,,
4.203628999999978,-37.434680052197066,-61.22291303509322,42.787505301620996,-0.5650715231895447,-0.32861045002937317,-0.9915634393692017,,,,,
4.213162000000011,-36.70513123323111,-62.071183309390165,44.725360324534826,-0.7555974125862122,-0.45941492915153503,-1.1177349090576172,,,,,
4.222552000000064,-34.8383643921159,-62.80347811109344,46.04498480857211,-0.9930735230445862,-0.35675951838493347,-0.7488602995872498,,,,,
4.232146000000057,-32.11553615956491,-63.268330116545265,46.73025194232913,-1.205376148223877,-0.42139071226119995,-0.632188618183136,,,,,
4.241651000000047,-28.19907400572954,-63.32962325306607,46.55504429247542,-1.4071574211120605,-0.39686888456344604,-0.438406765460968,,,,,
4.251180999999974,-23.00151511737693,-62.98551998395552,45.167499804085566,-1.48252272605896,-0.23422746360301971,0.06486207246780396,,,,,
4.260711000000015,-16.81332061635715,-62.225525895141885,42.36685329757152,-1.3561214208602905,-0.2502116560935974,0.3513379395008087,,,,,
4.270178999999985,-9.797157164014621,-61.01129480843098,38.16408924773681,-1.1169217824935913,-0.19994522631168365,0.7857714295387268,,,,,
4.2798669999999674,-2.7917639591996126,-59.412147014477895,32.91140050725985,-0.7834022641181946,-0.10895024240016937,1.3378713130950928,,,,,
4.289367999999968,3.106223792004039,-57.528618315359466,27.18440578153098,-0.42117854952812195,-0.13716578483581543,1.6122195720672607,,,,,
4.308390000000031,8.958328582861133,-53.766979512848835,16.92846442499066,0.0626630187034607,0.5601909160614014,2.9808924198150635,,,,,
4.317905999999994,7.500158335035138,-52.51402368614732,13.797619224550912,0.18022596836090088,0.43565428256988525,2.2905664443969727,,,,,
4.327415999999971,4.0482229897753905,-51.917466678305004,12.812522520787502,0.12170755863189697,1.0588492155075073,3.249509334564209,,,,,
4.336923999999954,-2.494131493656891,-51.836052519680436,14.207216651382064,0.150645911693573,0.8779616355895996,2.5608160495758057,,,,,
4.3462540000000445,-10.234469180464824,-51.80895756464644,17.658737552089985,0.1621624231338501,0.5778440237045288,1.813798189163208,,,,,
4.365454,-24.676700884293837,-51.60658085367913,25.139499506433335,0,1.0000393390655518,0.9522358775138855,,,,,
4.384286999999972,-33.62195082768324,-53.39839593556077,31.15420464471997,-0.36807766556739807,1.108367681503296,0.3184686601161957,,,,,
4.39381400000002,-35.9263252411351,-55.46712374877943,33.146853573308036,-0.5137833952903748,0.8157445192337036,-0.15343627333641052,,,,,
4.413018999999963,-36.95734253602498,-59.90561383406202,36.261011763978,-0.7582330107688904,0.2388208508491516,-0.18998852372169495,,,,,
4.422347000000059,-37.06486073693318,-61.326599093440514,38.21779710970769,-0.7513816952705383,-0.18466266989707947,-0.47025594115257263,,,,,
4.432056999999986,-37.10426378141922,-61.88033285951457,40.92209932131586,-0.7125505208969116,-0.2198132872581482,-0.44127893447875977,,,,,
4.441576000000055,-37.78680643471277,-61.741636499199,44.279898362493874,-0.6438179016113281,-0.21136990189552307,-0.22118110954761505,,,,,
4.450902000000042,-38.97042371167728,-61.245271653938666,47.97546649003137,-0.48278728127479553,-0.7376629114151001,-1.3341891765594482,,,,,
4.460413000000017,-38.71373604635692,-60.74399581986732,51.671021575706135,-0.4119286835193634,-0.2284696400165558,-0.8384150266647339,,,,,
4.4700880000000325,-37.92438559295009,-60.56274486038243,54.85631048712409,-0.3864649534225464,0,-0.3321321904659271,,,,,
4.4889420000000655,-33.93812899563975,-61.295784729176766,58.902176579900924,-0.6176557540893555,-0.3266814947128296,-0.8821092844009399,,,,,
4.507954000000041,-25.90067060263223,-62.21115267580918,60.74062570544574,-1.044660210609436,-0.6487480401992798,-0.7116694450378418,,,,,
4.517456000000038,-20.48327203019237,-62.06367037160005,61.24203415662481,-1.2406079769134521,-0.46754854917526245,-0.2866045832633972,,,,,
4.52698399999997,-14.53413655579171,-61.54717215813634,61.6395554206829,-1.2519606351852417,-0.33737149834632874,0.27125802636146545,,,,,
4.546041000000059,-0.6922535012263623,-59.89144043460952,61.36859445549196,-0.9269570112228394,-0.4089893400669098,0.511786162853241,,,,,
4.5557039999999915,7.9355897359580085,-59.22776019312838,59.96555603034629,-0.5870463848114014,-0.3170110881328583,0.9148294925689697,,,,,
4.574712999999974,27.58306278329012,-57.829156599455956,52.95163591573607,-0.16778576374053955,-0.39638271927833557,1.022786259651184,,,,,
4.584223000000065,37.62647971864709,-56.75664350601294,47.94458266563344,-0.1866968870162964,-0.42831772565841675,0.9324142336845398,,,,,
4.603246000000013,53.31720886529927,-53.011411369866146,37.016488865214924,-0.6529243588447571,-0.3613414764404297,0.6769287586212158,,,,,
4.61258399999997,57.54259416226855,-50.278480369302294,32.04163098794898,-1.0666465759277344,-0.07773447036743164,0.5700952410697937,,,,,
4.631595000000061,56.25231657725948,-43.82820800820831,24.54558273872584,-1.7045834064483643,1.0455307960510254,1.6887017488479614,,,,,
4.650693000000047,40.76496267027426,-37.93722095097573,23.603365573140056,-1.4169635772705078,0.9973937273025513,2.2358105182647705,,,,,
4.660203000000024,29.380615861941617,-35.3764969350468,26.20923499909598,-0.7408202886581421,1.4682966470718384,3.40883731842041,,,,,
4.669708000000014,15.665310312387094,-32.765607101050946,30.360358788766273,0.15608525276184082,1.5224995613098145,3.313627004623413,,,,,
4.679214999999999,1.5600267330800495,-30.189089656618595,35.61379828489028,1.03456449508667,1.3313804864883423,2.7335405349731445,,,,,
4.688733999999954,-11.370459328247144,-27.454178432204493,41.301593390967064,1.570035457611084,1.6925333738327026,2.5348477363586426,,,,,
4.707493999999997,-33.089185274402745,-22.477895486729437,50.02687461098841,0.8746155500411987,1.501828670501709,0.5885207653045654,,,,,
4.717010999999957,-40.82974149506797,-21.518749015015015,52.285562425035515,0.3577446937561035,1.588552474975586,0.09085202217102051,,,,,
4.736282999999958,-50.91845272867472,-22.459973586527386,53.563852603398914,-0.3058110773563385,0.9905336499214172,-0.9713144302368164,,,,,
4.755229999999983,-54.256068708968854,-23.677672543221323,55.17165074905395,-0.18752405047416687,0.8180686831474304,-0.3480401039123535,,,,,
4.764925000000062,-54.63610367835793,-22.90674904893137,56.18045612653122,-0.21712100505828857,0.7222463488578796,-0.21075883507728577,,,,,
4.774432000000047,-54.52703142194645,-21.30970272525134,57.653121667495675,-0.2730112075805664,0.7092968225479126,0,,,,,
4.783963999999969,-53.92920402423649,-19.404444009878787,59.298997349024454,-0.3355007469654083,0.6871248483657837,-0.15468770265579224,,,,,
4.793296000000055,-52.75769607293674,-17.689437683828636,60.78317242472176,-0.6752910017967224,0.8310784697532654,0.16052520275115967,,,,,
4.802814000000012,-51.63922587725884,-16.59653317945474,61.98760347939724,-0.770261287689209,0.42589545249938965,-0.16390404105186462,,,,,
4.812320999999997,-49.810097708363394,-16.06367070121197,62.563869936924,-1.2481071949005127,0.06840264797210693,-1.1682353019714355,,,,,
4.821812000000023,-46.534913544261606,-15.990594817860424,62.55932317541244,-1.8400441408157349,-0.23245549201965332,-0.7819707989692688,,,,,
4.831507999999985,-41.61805618275603,-15.82170841434956,61.69463081365939,-1.5246424674987793,0.1687772274017334,1.3837900161743164,,,,,
4.841003999999998,-37.01857563098077,-14.565620986733434,59.52372613385026,-1.5107848644256592,0.13860481977462769,0.9068517684936523,,,,,
4.850518999999963,-33.424069673194296,-12.91506194553528,57.245761884289166,-0.8439819812774658,-0.3571678400039673,0.8116458058357239,,,,,
4.860037000000034,-30.096499232653127,-10.984349922142695,55.49288995820713,-0.16169895231723785,-0.25175023078918457,0.5505415797233582,,,,,
4.869551000000001,-27.652083553534254,-8.325749172026805,54.28393060434042,-0.2808563709259033,-0.13574111461639404,0.617315948009491,,,,,
4.8885629999999765,-25.24651873361227,-2.963290529811896,53.78469677280796,-0.9577207565307617,0,0.209800124168396,,,,,
4.897897000000057,-24.54934139027497,0.20308527690788705,53.21394356984805,-1.412383794784546,0.3138670325279236,-0.37189018726348877,,,,,
4.916934999999967,-23.686664880953153,6.231410966982069,49.88425322509001,-0.9490850567817688,0.6286028623580933,-0.5566139221191406,,,,,
4.92641100000003,-23.39262893269494,9.007636048631248,46.87490865019939,-0.40179044008255005,0.5018064975738525,-0.6693789958953857,,,,,
4.945642000000021,-21.399399740688814,13.692375697342703,41.430861651552995,0.37968993186950684,0.3118782639503479,-0.4286091923713684,,,,,
4.955147000000011,-19.694705603461433,15.951631610214505,39.93713051187795,0.31536561250686646,0.05690354108810425,-0.5041651725769043,,,,,
4.9741860000000315,-14.427277623596705,20.414636435562883,39.90922007137617,-0.5019052028656006,-0.0930006355047226,-0.7454307079315186,,,,,
4.983691000000022,-11.410732541474607,22.382123940201907,40.827460584427534,-0.7609941363334656,0.06476256251335144,-0.4555235505104065,,,,,
4.993017000000009,-9.178734383018883,24.188447512296673,41.50841853297798,-0.893779456615448,-0.21206365525722504,-0.8737152814865112,,,,,
5.012230000000045,-6.078155582623134,26.313195052929434,41.15937991672788,-0.17041876912117004,-0.1194787546992302,-0.812787652015686,,,,,
5.021710999999982,-6.060949642153414,26.377446216310496,40.10197304869019,0.2868671417236328,-0.2818153500556946,-0.6476202011108398,,,,,
5.031236000000035,-6.661742078996697,25.541829444659008,38.84481941678027,0.5777651071548462,-0.4847407639026642,-0.3323165774345398,,,,,
5.040755999999988,-7.344571461952798,24.061105472995436,37.73372948243741,0.5237820148468018,-0.36750590801239014,0.27871328592300415,,,,,
5.059776000000056,-8.957090883772649,20.503377275135612,36.829175038497596,-0.34087663888931274,-0.46891236305236816,0,,,,,
5.069295000000011,-9.239809243037723,18.9711347355081,37.154338740338886,-0.5202810764312744,-0.47997143864631653,0,,,,,
5.088307999999984,-9.071993457456408,17.70143638881216,38.456095954630506,-0.27781739830970764,-0.6860789060592651,-0.48506617546081543,,,,,
5.1071490000000495,-7.190318533772129,17.625954721000785,39.886528699187075,0.20111794769763947,-0.4713203012943268,-0.9920494556427002,,,,,
5.116861999999969,-6.2763319639054584,17.737567787448636,40.793302706913686,0.3598678708076477,-0.6243575215339661,-0.44083017110824585,,,,,
5.126382000000035,-5.314504847368964,18.057397281645475,41.99856950203436,0.32712119817733765,-0.705830991268158,-0.43146419525146484,,,,,
5.135901999999987,-4.2333290122392135,18.206891013508447,43.71994263329646,0.08560335636138916,-0.5912941694259644,-0.10592085123062134,,,,,
5.145363999999972,-3.537831600028736,18.105922624193845,45.99980613290958,-0.09272879362106323,-0.48223960399627686,0.301690936088562,,,,,
5.154867999999965,-3.4292267120033015,18.07730193034227,48.61605367881957,-0.5155681371688843,-0.24003036320209503,0.05523008108139038,,,,,
5.173898000000008,-5.618976064232177,18.06066844271602,53.566623047837005,-0.7588685154914856,0.6587693691253662,0.5108756422996521,,,,,
5.183395000000019,-8.591357687210131,18.69532744657687,55.3957713664076,-0.975753903388977,0.777013897895813,-0.1656794548034668,,,,,
5.202429000000052,-15.21130865086778,19.317115513502124,57.85650209259583,-0.981830894947052,1.6178950071334839,1.0747287273406982,,,,,
5.211939000000029,-20.148567922454085,19.900064862860884,58.393086133206495,-1.2511287927627563,0.9632093906402588,0.3509141206741333,,,,,
5.221442000000025,-24.129372455185525,20.494198790626253,59.12219047538117,-1.4905109405517578,0.9727538824081421,0.6467612385749817,,,,,
5.230947000000015,-27.568214485367914,21.08316184077241,59.92528966703575,-1.31570303440094,1.3239960670471191,1.2523472309112549,,,,,
5.240288999999962,-30.87452305627782,21.64376122175331,60.62966265157977,-1.387345790863037,0.8697031736373901,-0.24399101734161377,,,,,
5.27833499999997,-37.154584020928155,19.873404215752718,54.22964341990375,0.2902691066265106,0.9358772039413452,-0.6351245641708374,,,,,
5.297374999999988,-37.38553724777535,16.911832013998904,48.41182661482551,0.856299877166748,0,-1.2741105556488037,,,,,
5.306874999999991,-35.64271156948494,15.758330884440264,46.64305538927972,0.8511128425598145,-0.09655988216400146,-0.9403138160705566,,,,,
5.316376999999989,-33.349187238175,14.903899499617832,45.937028217038815,0.9065003395080566,-0.8303328156471252,-1.8062918186187744,,,,,
5.335572999999954,-23.04161753079956,14.582953406273418,46.51809883319226,0.3962417542934418,-0.026641100645065308,-0.6470896005630493,,,,,
5.344930999999974,-17.34007364553293,14.397793735059532,47.265085164959444,0.39750179648399353,-0.6197038292884827,-0.9978641867637634,,,,,
5.354611999999975,-9.981955936006091,14.20720119321893,48.007365319937676,0.3335191309452057,-0.45156073570251465,-0.5783990025520325,,,,,
5.364116999999965,-1.7331777850491146,14.019857408295444,48.650420370359534,0.16759681701660156,-0.1885189712047577,0.520890474319458,,,,,
5.383134000000041,14.166977798423487,14.071228127596964,50.41571007161264,-0.5074124932289124,-0.6353511214256287,0.31525176763534546,,,,,
5.392638000000034,21.645172735121104,14.219987970642864,52.05787883002488,-1.111476182937622,-0.5247772932052612,0.5434271693229675,,,,,
5.411484999999971,31.398453175536762,14.263615719771044,56.86768037093828,-1.7487975358963013,-0.55951327085495,-0.3320885896682739,,,,,
5.430689000000029,31.782318089393918,14.519832752747211,63.04757518059057,-1.759589672088623,0.4686357378959656,0,,,,,
5.4401940000000195,27.72953126235942,14.666744278207785,66.0598174069243,-1.6002137660980225,0.925635576248169,0.3661651611328125,,,,,
5.4497029999999995,21.478341018358233,14.855497777231331,68.665744314187,-1.4677047729492188,1.861775279045105,1.5790562629699707,,,,,
5.468733000000043,1.4363946264321166,16.391721196376064,70.74224253727684,-1.1427137851715088,1.7254083156585693,1.7726118564605713,,,,,
5.478065000000015,-9.413909188319158,17.201195798148714,69.92427067647638,-1.2516629695892334,2.2321064472198486,2.122352123260498,,,,,
5.49690499999997,-32.174160127078274,16.120342380788056,65.36178414938261,-0.6951335668563843,1.563368558883667,0.5899618268013,,,,,
5.506593000000066,-41.82066810212529,14.831958557909614,63.310635077254574,-0.40133431553840637,1.6005477905273438,0.47984737157821655,,,,,
5.516100000000051,-50.53061672669183,13.79400776484682,62.25673910663392,0.07885465025901794,1.2454736232757568,-0.23311996459960938,,,,,
5.535213999999996,-63.03112249086953,14.636208083640822,61.574716641301634,0.27953416109085083,1.5161147117614746,-0.7004945874214172,,,,,
5.544713000000002,-67.5691166190004,15.77523153406856,61.24164414059663,0.17844504117965698,1.444912075996399,-1.3964650630950928,,,,,
5.554224999999974,-70.56035067521285,16.479631597701992,60.485742234808356,0.04825930297374725,1.5801295042037964,-1.473059892654419,,,,,
5.563743000000045,-72.44062034247088,16.178384955947667,59.146891306130634,-0.05219548940658569,1.6832427978515625,-1.5273399353027344,,,,,
5.573170000000005,-73.61140026405357,14.624018624842423,57.64261398109173,0.09681613743305206,1.3506206274032593,-1.7416656017303467,,,,,
5.582675999999992,-73.64902190360299,12.177579655851476,56.0073150980953,0.48468106985092163,0.9696699380874634,-1.9051313400268555,,,,,
5.592180999999982,-72.45772231630244,9.585596265191489,54.194633100846985,0.8713624477386475,0.7755029797554016,-1.820778489112854,,,,,
5.601702000000046,-70.76192613487231,7.554935707140953,52.80154636052151,1.251814603805542,0.37945324182510376,-1.850964069366455,,,,,
5.611214000000018,-68.45526378613873,6.668141376271379,52.280589205586296,1.6224486827850342,-0.16650629043579102,-2.1640889644622803,,,,,
5.620726999999988,-64.94559706593463,7.229078691324553,52.78664509281839,1.694640874862671,-0.15963536500930786,-1.5916897058486938,,,,,
5.6302369999999655,-60.65601295776386,8.949300777704494,54.6850436420229,1.510406732559204,-0.11206549406051636,-1.3219280242919922,,,,,
5.639767000000006,-55.6090930234437,11.19476324880244,58.04166897913956,1.044438362121582,0.25557589530944824,-0.3818413019180298,,,,,
5.658942000000025,-46.685815162179075,14.817767425308439,66.95876657315861,-0.5865259170532227,0.5006118416786194,0.8470295071601868,,,,,
5.677967999999964,-41.72051898433588,15.469785568820981,74.74625805743834,-2.161530017852783,1.2718510627746582,2.375312328338623,,,,,
5.687540000000013,-41.84806489055675,15.076042006982012,77.15732849571518,-2.678126335144043,1.5523333549499512,2.8768129348754883,,,,,
5.6969910000000255,-43.56630816311999,14.771540929263274,78.36531336438729,-2.9331228733062744,1.4884250164031982,2.4589712619781494,,,,,
5.706508999999983,-45.59237205928886,14.807190569361952,78.52331508528664,-2.8166205883026123,1.6629676818847656,2.5084915161132812,,,,,
5.725344000000064,-50.58841042929095,16.102339737889753,76.11347614153438,-1.6267836093902588,1.247078537940979,1.2936371564865112,,,,,
5.734851000000049,-52.16785089035143,17.008262089817244,74.33056671540017,-0.9579365253448486,1.4057037830352783,1.2024433612823486,,,,,
5.744363000000021,-53.58102753106801,17.684461532041414,72.53586889212357,-0.4122999310493469,1.2284811735153198,0.6336161494255066,,,,,
5.753883999999971,-54.516186100639395,17.994642222395413,70.90419369303409,-0.18778535723686218,0.9815151691436768,0.09183937311172485,,,,,
5.763385999999969,-54.8495449378328,17.854965910933576,69.36766863134993,-0.23890718817710876,0.9418946504592896,0,,,,,
5.772959000000014,-54.901897401631736,17.23410706767374,67.87144342793181,-0.3675896227359772,0.6825287938117981,-0.45107123255729675,,,,,
5.7825860000000375,-54.48385786809357,16.300553551384144,66.3187747512399,-0.47836625576019287,0.6918542981147766,-0.21330499649047852,,,,,
5.792114999999967,-54.39318749594065,15.258327195583034,64.52241748104511,-0.46197259426116943,0.3412017524242401,-0.5770840048789978,,,,,
5.810956000000033,-53.720369831669935,13.445829856893125,60.945201685195336,0.0761147141456604,-0.060245633125305176,-1.0030320882797241,,,,,
5.820465000000013,-52.942062941855305,12.8019841116193,59.44274173082801,0.42969590425491333,0,-1.0220146179199219,,,,,
5.82998699999996,-52.04097369470911,12.19851101555076,58.27980257517316,0.7500225305557251,0.025685489177703857,-1.1075799465179443,,,,,
5.839474999999993,-50.903011572571764,11.510382553018195,57.57920645050381,0.9895766377449036,-0.06207460165023804,-1.3937203884124756,,,,,
5.848979999999983,-49.16720786324768,10.659122381044027,57.217900535692415,1.0479378700256348,0,-1.3864092826843262,,,,,
5.858501000000047,-46.99832500331484,9.558269952823363,57.21676901228165,0.9897196292877197,-0.025948286056518555,-1.4269232749938965,,,,,
5.868015000000014,-44.32138826077563,8.27421366038346,57.60508755268578,0.8706893920898438,-0.19186455011367798,-1.5941684246063232,,,,,
5.877525999999989,-40.759282519182506,7.05387764694342,58.307291660239514,0.6607036590576172,-0.2477778196334839,-1.2849082946777344,,,,,
5.906244000000015,-25.490831240360517,6.198130060665629,62.42623444182238,-0.5163190960884094,-0.3357226550579071,-0.5314222574234009,,,,,
5.915750000000003,-19.38640492758863,6.990712539811326,64.7346939286981,-0.8492876291275024,-0.22678053379058838,-0.4962303042411804,,,,,
5.93476099999998,-7.295055036115452,9.978492242724041,70.02720579276036,-0.8108410239219666,-0.28961750864982605,-0.4378575086593628,,,,,
5.944276000000059,-1.73782888081258,11.718654206848727,72.90955004108295,-0.5696791410446167,-0.1623043566942215,-0.14589059352874756,,,,,
5.953800000000001,2.548451473084302,13.236390293689324,76.01185090767733,-0.3559095859527588,-0.09432175010442734,-0.34289413690567017,,,,,
5.963283000000047,5.567681535892758,14.33538782077208,79.34815725119154,-0.40265440940856934,0.3717033565044403,0.15500950813293457,,,,,
5.972814999999969,6.555332157115413,14.981598057413581,82.83275460433944,-0.7213759422302246,0.7074983716011047,0.7971900701522827,,,,,
5.982306999999992,6.342379517448701,15.275174615089949,86.32372320023984,-1.204912543296814,1.038177490234375,0.8615578413009644,,,,,
5.991835000000037,4.47457853680161,15.448283907679055,89.47399373636243,-1.5170001983642578,2.0885205268859863,2.2972793579101562,,,,,
6.020358999999985,-13.997362749515075,17.290535402404053,93.57664773234549,-1.0771763324737549,2.074582815170288,1.7206043004989624,,,,,
6.039200000000051,-30.26134396293047,17.43008421749772,89.5736266141943,-0.9379651546478271,1.809780240058899,1.0660455226898193,,,,,
6.048708000000033,-38.16676899015009,16.087922349262847,86.6141166255255,-0.8396377563476562,1.9513241052627563,1.1265114545822144,,,,,
6.067761000000019,-51.93099540646314,12.851217145036099,82.12967603689903,-0.3402615189552307,1.195001482963562,0.14931029081344604,,,,,
6.0772550000000365,-56.95249281759174,12.436891888226725,80.989051397539,-0.1757926046848297,1.2830612659454346,-0.09186369180679321,,,,,
6.096349000000032,-63.68119613669931,14.441201000006389,79.70119068385088,-0.23835979402065277,1.3351378440856934,-0.7430258989334106,,,,,
6.105800000000045,-65.40009277980094,15.589039111008548,78.87794420120849,-0.46103888750076294,1.3750849962234497,-0.9010246992111206,,,,,
6.115294000000063,-66.38081958533138,15.77482017346522,77.81291408579095,-0.49231797456741333,1.0452587604522705,-1.3018760681152344,,,,,
6.124813000000017,-66.20920849946029,14.773076556705842,76.29085707223234,-0.41867706179618835,1.1073734760284424,-0.8810871839523315,,,,,
6.143823999999995,-66.2356254441663,9.88383690776864,72.33952199385281,0.22160190343856812,0.06798171997070312,-1.4450862407684326,,,,,
6.153344000000061,-65.3746472428362,7.287972162383191,70.56467374045428,0.5369055271148682,-0.06001412868499756,-1.398472547531128,,,,,
6.162840999999958,-64.221031013883,5.507057866603499,69.32449668722977,0.6680020689964294,0.039295971393585205,-0.9595916271209717,,,,,
6.172348000000056,-63.40302156851793,4.841527147599451,68.97676843505863,0.7237659096717834,-0.32153600454330444,-1.4464290142059326,,,,,
6.191404000000034,-59.49682403302968,6.93567466920648,70.6926885960175,0.169921875,0.1556922197341919,-0.9908641576766968,,,,,
6.200905000000034,-57.44406932838951,8.892162573377592,72.47985765290989,0,0.154124915599823,-1.017698049545288,,,,,
6.220102999999995,-52.56557590810902,12.75532968380808,76.84783890490472,0.14610496163368225,0.5584765672683716,-0.35013118386268616,,,,,
6.229427999999984,-50.106629707830436,14.268904527885352,79.48441214221693,0.36164799332618713,0.8184414505958557,-0.24590620398521423,,,,,
6.23895200000004,-47.88086917334254,15.47060562707566,82.57656435786119,0.4814915060997009,1.2208948135375977,0.2543526887893677,,,,,
6.248469,-46.359024460633876,16.379021812333626,86.22630399196058,0.33693328499794006,1.502640724182129,0.6687498688697815,,,,,
6.257951000000048,-45.25302620196774,16.95576083501068,90.35092324765402,-0.08895385265350342,1.6533538103103638,1.0827819108963013,,,,,
6.267461000000026,-44.50454683241864,17.126294801319702,94.58140494960517,-0.8559253215789795,1.8364036083221436,1.8502519130706787,,,,,
6.296002000000044,-41.614456007253985,14.610020882301257,102.02199072711356,-3.0576086044311523,1.6998655796051025,1.847095251083374,,,,,
6.305693000000019,-40.28918662191735,13.8506377359144,100.88194762691606,-2.819148540496826,1.4059345722198486,1.8679769039154053,,,,,
6.315198000000009,-39.62278706354208,13.937765930191349,97.86120733254624,-2.0244269371032715,0.8048554062843323,1.3517673015594482,,,,,
6.334228000000053,-39.8392903147774,15.219243411622285,90.50189959965343,0.15298058092594147,0.4783223867416382,1.4231069087982178,,,,,
6.343733000000043,-41.41056215718109,15.849669358964995,87.69255159550806,0.8331282734870911,-0.03326857089996338,0.39850109815597534,,,,,
6.3532410000000255,-42.68373106728381,16.373127187892585,85.82995528447104,0.7082024812698364,0.2173195779323578,0.3890863060951233,,,,,
6.362769999999955,-44.409175813975025,16.44538538600657,84.69983316659788,0.20408950746059418,0.2709510922431946,0.10793548822402954,,,,,
6.372284000000036,-46.334821632167724,16.039182419487606,83.63582398327112,-0.5164240002632141,0.3013734817504883,-0.11129319667816162,,,,,
6.391107000000034,-50.796715733053794,14.011209865974179,79.67860889985553,-1.4727177619934082,0.44852426648139954,-0.5006220936775208,,,,,
6.419824000000062,-58.26043624553882,9.954991746289329,69.54078061881731,0,0.12486040592193604,-0.7913980484008789,,,,,
6.429177999999979,-60.76984645573606,8.935064728461962,66.55551111226339,0.6007730960845947,0.16415917873382568,-0.7663537263870239,,,,,
6.438670000000002,-63.33198381824344,8.132841428166719,64.09647262560141,0.9165566563606262,0.21304816007614136,-1.0032203197479248,,,,,
6.457687999999962,-67.97057685134082,6.225845773393484,60.94732098418559,0.8405581712722778,0.44460242986679077,-1.236727237701416,,,,,
6.4672030000000404,-69.87646589827155,4.814747506808956,60.16789283186732,0.6915797591209412,0.4669932425022125,-1.5355795621871948,,,,,
6.476701000000048,-71.1159092663582,3.204284028739246,59.92129463082174,0.604220986366272,0.48750418424606323,-1.6735084056854248,,,,,
6.495741000000066,-71.01891513449345,0.8852614053365196,61.99580128807132,1.0714977979660034,0.42756950855255127,-1.2890830039978027,,,,,
6.505234999999971,-69.59471323080733,1.1967444855135352,64.44695897467157,1.3604669570922852,0.6526291370391846,-1.340036153793335,,,,,
6.514750000000049,-67.62126086850914,2.8178601304438757,67.932722434988,1.2675031423568726,0.8926929831504822,-0.5504396557807922,,,,,
6.533777999999984,-62.288045079311516,8.415512505577453,78.5314010417853,0.8138397932052612,1.607675552368164,0.3669723570346832,,,,,
6.543282999999974,-59.15027058258239,11.006436904884776,84.99005666859584,0.2591896057128906,2.1912386417388916,1.2651938199996948,,,,,
6.552788999999962,-56.82915721195164,12.345678951265928,91.51489116509451,-0.48210516571998596,2.4719443321228027,1.8550140857696533,,,,,
6.56230400000004,-55.70039114163322,11.924827065252765,97.47815011788025,-1.4355255365371704,2.019683361053467,1.97451651096344,,,,,
6.571812000000023,-54.017646411851665,9.688389191878153,102.2284938923268,-2.3396151065826416,1.9044127464294434,2.104795217514038,,,,,
6.58132599999999,-51.232858630346904,6.173054179904443,105.10067942315368,-3.205634832382202,1.840235710144043,2.435664415359497,,,,,
6.5908359999999675,-47.379594287371226,2.5401416058995436,105.7547865400431,-3.406527519226074,1.219246506690979,2.484367847442627,,,,,
6.600543000000016,-42.65525317246236,0.46995665861682184,104.0153174013613,-2.9476053714752197,0.48921388387680054,2.289428234100342,,,,,
6.610038000000031,-38.20780137200156,0.9349782803047944,100.61407912199009,-2.1716136932373047,0.13605159521102905,2.8783814907073975,,,,,
6.629054999999994,-33.26268934043697,6.0136940830707335,94.7498647248553,0.33642882108688354,-0.30051523447036743,1.3323005437850952,,,,,
6.638569999999959,-32.208791772861375,8.388749946526213,93.61136960332954,1.1418012380599976,0.23763486742973328,1.4875929355621338,,,,,
6.6480770000000575,-33.182000526940094,9.848912816766038,93.09465702297913,1.0235167741775513,-0.13302403688430786,0.22785651683807373,,,,,
6.657612999999969,-34.42107948647118,9.9916749943423,92.52483978486264,0.2542016804218292,0.15113794803619385,0.17786473035812378,,,,,
6.667104999999992,-36.451392839578205,8.741100908961657,91.22056098952923,-0.6682034730911255,0.5301279425621033,0.5273518562316895,,,,,
6.685947000000056,-41.67346129342693,3.9511691058884213,85.4426042879454,-1.7290595769882202,0.35099807381629944,-0.1103171706199646,,,,,
6.714663999999971,-49.026701238860944,0.03209788498855091,75.51618674911761,-0.23050720989704132,0,-0.32499486207962036,,,,,
6.723998000000051,-51.73447811029963,0.7545014752154029,73.59164345494035,0.21423755586147308,0.07382756471633911,-0.985357403755188,,,,,
6.743007000000034,-56.739597359853235,2.5237352803486357,71.18867541129951,0,0.6921243667602539,-1.0249521732330322,,,,,
6.752533999999969,-59.2976448354868,2.2596071078474282,69.88960334128082,-0.27578049898147583,0.7810399532318115,-1.3919756412506104,,,,,
6.762053000000037,-61.35198695281441,0.8651223999197172,68.41985885296221,-0.28207796812057495,0.8315492868423462,-1.4716684818267822,,,,,
6.77154500000006,-62.70548562708883,-1.2645569830439,66.8222086917761,0,0.6343666911125183,-1.6068885326385498,,,,,
6.781056000000035,-62.99827044135,-3.322336238826011,65.60252739300226,0.5212437510490417,0.3543236255645752,-1.4596765041351318,,,,,
6.790564000000018,-62.14166344337633,-4.32793219879434,65.25341324127766,1.0793102979660034,0.2100236415863037,-1.2798720598220825,,,,,
6.800077999999985,-60.39173701535688,-3.5939042733700504,66.17566788292062,1.406863808631897,0.23423528671264648,-1.2194441556930542,,,,,
6.8286130000000185,-51.65935111987414,6.215696805143784,78.53082144954843,0.7874338626861572,1.43169105052948,0.22184079885482788,,,,,
6.838117000000011,-48.404113238427335,8.953831329432616,84.64833919576957,0.1770249307155609,1.9367709159851074,0.6367833018302917,,,,,
6.847631999999976,-45.8975281096096,10.073189989313818,90.31747851534845,-0.5791199207305908,2.3027844429016113,1.1824190616607666,,,,,
6.8571470000000545,-44.64593465433223,9.246627869806685,94.85988792815706,-1.3390198945999146,2.3808541297912598,1.8695755004882812,,,,,
6.866651000000047,-44.38315793444481,6.652464677365327,97.95931494660155,-2.0187911987304688,1.808858871459961,1.867037296295166,,,,,
6.876171999999997,-43.10883323826746,3.046431443743753,99.5948796287637,-2.7179086208343506,1.4664101600646973,1.840772271156311,,,,,
6.8856759999999895,-40.20085155934824,-0.495811139749067,99.86624878924893,-3.221898078918457,1.2195903062820435,1.9601942300796509,,,,,
6.904877000000056,-32.82495317613428,-2.0431318781497785,96.88275130346707,-2.3707680702209473,0.1905883550643921,2.1370596885681152,,,,,
6.923888000000034,-29.504523759208357,4.024900267377013,92.87352707353624,-0.059058576822280884,-0.4091368317604065,0.7468728423118591,,,,,
6.933412999999973,-29.047925877422948,6.871386421577165,91.53546857602682,0.7217106819152832,-0.07091391086578369,0.8059141039848328,,,,,
6.980785999999966,-41.66046832595071,2.955446537362088,81.03695117815431,-1.374812126159668,0.07263416051864624,-0.4655396640300751,,,,,
6.990482000000043,-43.670670185492256,1.2286857697752789,78.36814973286866,-1.2051231861114502,0.03791719675064087,-0.16854476928710938,,,,,
7.0093389999999545,-47.8954916879779,1.4375954108685074,74.48891306209272,-0.11933434754610062,-0.22965717315673828,-1.0032614469528198,,,,,
7.018835999999965,-49.715987507920325,2.7469073482851107,73.77893193085416,0.1753409504890442,0.06780403852462769,-0.9700042009353638,,,,,
7.037849000000051,-53.44226306374632,4.363980996647141,73.7129908760746,0,0.49738603830337524,-1.1097934246063232,,,,,
7.047375999999986,-55.2846331208305,3.7928696579711687,73.54874755543358,-0.33247900009155273,0.7096431255340576,-1.2246545553207397,,,,,
7.056917999999996,-56.96569309715076,2.193878602846862,73.09824359989403,-0.5445959568023682,0.6695892214775085,-1.2299094200134277,,,,,
7.066434999999956,-57.96719006270182,0.0896363667110051,72.51185844761734,-0.489361971616745,0.6349446773529053,-1.3434126377105713,,,,,
7.085430999999971,-58.278748931448526,-2.5344486417810232,72.55570633899997,0.3061189651489258,0.3527212142944336,-1.1240434646606445,,,,,
7.094930999999974,-57.3475029229593,-1.857847505529517,73.94438900198816,0.6966191530227661,0.5704049468040466,-0.8696447610855103,,,,,
7.104467999999997,-55.764790553974905,0.07604655205705665,76.58446990337447,0.8680166602134705,1.0726712942123413,-0.36376726627349854,,,,,
7.113985999999954,-53.85814768843241,2.578744437520612,80.3867391077634,0.7658141255378723,1.467732310295105,-0.11174798011779785,,,,,
7.123454000000038,-51.520118773897515,4.761646101498769,84.7178473184595,0.3263632655143738,1.9566948413848877,0.5112318992614746,,,,,
7.132970999999998,-49.351952090264774,5.769964915200807,89.04967590722754,-0.38565492630004883,2.2315762042999268,1.2066384553909302,,,,,
7.142461000000026,-47.63119383578483,5.133063786779127,92.6963056205894,-1.2011997699737549,1.8729119300842285,1.1949875354766846,,,,,
7.151975999999991,-45.03492762496676,2.972966077879616,95.15788152531556,-1.9100863933563232,1.7777643203735352,1.7118511199951172,,,,,
7.161499000000049,-41.538064920636884,0.016746921041307226,96.05258179787349,-2.522423505783081,1.6408424377441406,2.409780263900757,,,,,
7.180690000000027,-33.12633398772313,-3.707931880448869,93.70044472031283,-2.1426403522491455,0.16028636693954468,2.1282172203063965,,,,,
7.190202999999997,-29.00070352509027,-2.799058449543486,91.75695596196161,-1.4718910455703735,0.1935802400112152,2.5138790607452393,,,,,
7.199709999999982,-27.253172974311635,-0.621223230981094,90.39838853075156,-0.4727451801300049,-0.5491656064987183,1.2313899993896484,,,,,
7.209227000000055,-26.066637335930164,2.2094461065062667,89.80018125230896,0.04078778624534607,-0.5350455045700073,0.4455580711364746,,,,,
7.218724000000066,-25.4044485378864,4.7346898839733065,89.45990337805227,0,0.41280463337898254,1.3828380107879639,,,,,
7.228251,-27.36309578115771,6.149772688545532,88.67477688546971,-0.17629116773605347,0.3253887891769409,0.520712673664093,,,,,
7.237762999999973,-30.42555943675471,6.502758173820731,86.84205332189512,-0.5564137101173401,0.34768205881118774,0.12368011474609375,,,,,
7.256628999999975,-38.49169760461371,4.310311564629223,80.30750033137882,-0.9449293613433838,0.5174328088760376,-0.3211217522621155,,,,,
7.266300000000001,-42.341625134763795,2.4957841941430714,76.82747088781399,-0.6993898153305054,0.42014390230178833,-0.12309759855270386,,,,,
7.275801000000001,-45.840316538370224,1.2214435706686688,73.82168659361754,-0.3976097106933594,0.3236860930919647,-0.34071385860443115,,,,,
7.285315999999966,-48.976053969083786,0.8595008061957281,71.66927414815571,-0.05501218140125275,0.10459405183792114,-0.7767450213432312,,,,,
7.3041749999999865,-53.539026550144484,2.7979812690115367,69.48220562671229,0.18916422128677368,0.43851912021636963,-0.9571988582611084,,,,,
7.313675999999987,-55.47115717976238,3.910518602602484,68.8661938142277,-0.08032816648483276,0.45858991146087646,-1.3133997917175293,,,,,
7.323192000000063,-57.034371354625286,4.110122824163336,68.22697945704421,-0.38233739137649536,0.6162353754043579,-1.1566529273986816,,,,,
7.33272199999999,-58.59972956883186,3.2052817251172336,67.09005702704415,-0.6670015454292297,0.5757225751876831,-1.3261194229125977,,,,,
7.351711000000023,-60.64486137945501,-0.9865957774863515,63.97081833649699,-0.5730679631233215,0.29167085886001587,-1.4553714990615845,,,,,
7.361222999999995,-60.95111076707449,-2.892884089685556,62.583202995752615,-0.12396426498889923,0.045140862464904785,-1.4977340698242188,,,,,
7.370734999999968,-60.64862338057964,-3.641075619879186,61.79454077666461,0.2670493721961975,0,-1.4509795904159546,,,,,
7.389766000000009,-58.48311527072832,-1.1963552705156684,63.52705948531556,0.7799079418182373,0.31912505626678467,-1.2680480480194092,,,,,
7.399270999999999,-56.50073013656728,1.2420283763389013,66.09573914784197,0.5965617895126343,0.6682446002960205,-1.023716688156128,,,,,
7.41830200000004,-51.525818716923006,4.6997368636562475,73.47922551453952,-0.03607872128486633,1.2140902280807495,-0.14803406596183777,,,,,
7.437328999999977,-47.37946871847232,4.201750419718861,80.49225523581211,-0.3704927861690521,1.2972872257232666,0.5530428886413574,,,,,
7.456327999999985,-43.99404675231661,1.40566902388782,86.04068977021667,-0.6684039235115051,1.3631982803344727,1.7020196914672852,,,,,
7.475528000000054,-39.113507878870244,-0.6033358483888627,90.88916581708149,-2.20702862739563,1.282557487487793,2.5819902420043945,,,,,
7.485050000000001,-36.6468929302853,-0.44725338250269914,92.19363877540596,-2.927273988723755,0.8852704763412476,2.164365768432617,,,,,
7.504054999999994,-32.229452954800834,1.6363182703060233,91.02903980381761,-2.2899036407470703,0.6718999147415161,1.510779619216919,,,,,
7.513577000000055,-31.860891329407576,3.440857520793369,88.2313486574395,-1.4771207571029663,0.3565610349178314,1.2435654401779175,,,,,
7.532594000000017,-35.231061180985115,5.214078131486001,81.1311850289732,0.3640057146549225,0.20505839586257935,0.612341046333313,,,,,
7.542121000000066,-38.731135274958326,5.080824414032825,77.89526963018265,0.6278910040855408,0.13813942670822144,0.04761099815368652,,,,,
7.551631000000043,-42.383476029610364,4.56252468651935,75.40701042712364,0.19650384783744812,0.29669520258903503,-0.3034740686416626,,,,,
7.561128000000053,-45.87955260921671,3.7170583971217224,73.77495024089126,-0.26450467109680176,0.5075207352638245,-0.19763723015785217,,,,,
7.579980999999975,-51.41954643116859,3.247380780550563,70.95096315332485,-1.1447511911392212,0.6245669722557068,-0.747891902923584,,,,,
7.589498000000049,-53.208155209258514,3.5445854912549617,69.30815318820653,-0.987311840057373,0.609449028968811,-0.7659571170806885,,,,,
7.598998000000051,-54.45032257521174,3.9682686403547653,67.39626758891147,-0.5160816311836243,0.48712995648384094,-0.8931224942207336,,,,,
7.608516000000009,-55.21185382627919,4.295904991513404,65.29979882512706,-0.08410438150167465,0.4134153723716736,-0.965239405632019,,,,,
7.618048000000044,-55.748133250915,4.166947471649964,63.50109950759074,0.32430076599121094,0.23339879512786865,-1.143561840057373,,,,,
7.627575999999976,-56.04614749184622,3.5846727620402437,62.111705578843434,0.5059351325035095,0.11560845375061035,-1.1240301132202148,,,,,
7.637099000000035,-56.25856234121433,2.71916712146791,61.068677803067416,0.3202808201313019,0,-1.2143797874450684,,,,,
7.646578999999974,-56.35928654566295,1.668928921643235,60.55842100956852,0,-0.12066525220870972,-1.271134614944458,,,,,
7.65606600000001,-56.2736472128172,0.6873009008379444,60.51934161455819,-0.24809642136096954,-0.15633559226989746,-1.1532591581344604,,,,,
7.665584999999965,-56.04977234815686,0.09483936857278517,60.77491252622961,-0.47341108322143555,-0.18431520462036133,-1.208275556564331,,,,,
7.684608000000026,-54.812977781290165,0.4060441423162691,62.418363914329554,-0.3335300385951996,0.05181771516799927,-1.0994210243225098,,,,,
7.694111000000021,-53.798470673383974,1.265973024739981,63.903571357114735,-0.0984199270606041,0.25091177225112915,-1.0695240497589111,,,,,
7.70363599999996,-52.48857128915905,2.3347442838798345,65.99191974275767,0.11153915524482727,0.5053871870040894,-0.8922768831253052,,,,,
7.713126999999986,-50.948954574028406,3.285597925799207,68.80699388037533,0.2906353771686554,0.7660432457923889,-0.6493451595306396,,,,,
7.722638999999958,-49.41563723254756,3.9061039910905624,72.20050558665967,0.29047486186027527,1.0719674825668335,-0.13752973079681396,,,,,
7.7321470000000545,-48.20423328107419,4.015146327434371,75.96376319044082,0.1689113974571228,1.0550527572631836,-0.19359678030014038,,,,,
7.741645000000062,-46.60609410230618,3.527261172968356,79.91171427956036,0,1.4389879703521729,0.5431270003318787,,,,,
7.7511670000000095,-45.14501587648729,2.5163109927242617,83.72831023692434,-0.3139995336532593,1.6915496587753296,1.2576379776000977,,,,,
7.760681999999974,-43.731778231941306,1.125343110247908,87.1720449373019,-0.67378830909729,1.5041775703430176,1.4925861358642578,,,,,
7.7701920000000655,-41.526036567808255,-0.4697784536896983,90.1420588909463,-1.1886794567108154,1.5010946989059448,2.0687978267669678,,,,,
7.789386000000036,-35.925361228389974,-3.135248926549645,93.86301786467673,-2.0335888862609863,0.8737660646438599,1.9304389953613281,,,,,
7.7989089999999806,-33.054207379676875,-3.744991878623031,94.59696263630883,-1.847070336341858,0.5776702165603638,1.7305772304534912,,,,,
7.808415999999966,-30.783940906555607,-3.585362717680502,94.74254915658364,-1.3370110988616943,0.4282855987548828,1.309324026107788,,,,,
7.817914999999971,-29.87083129201207,-2.565706808790822,94.43942075495518,-0.9234545826911926,0.39184537529945374,0.8248931169509888,,,,,
7.8369559999999865,-31.31101653548752,0.1627988871173386,92.76982203772705,-1.4743317365646362,0.1546209156513214,0.7797433733940125,,,,,
7.846461999999974,-33.25366239654099,0.8473008318297899,90.88264475250094,-1.776645302772522,0.45920509099960327,0.5144425630569458,,,,,
7.8652980000000525,-39.61675510222248,0.6257656622191282,84.29792643753969,-1.2834874391555786,0.6490907669067383,0.08998900651931763,,,,,
7.8750009999999975,-43.366675159914756,0.09617484507952911,80.4044619938612,-0.5946557521820068,0.6225114464759827,0,,,,,
7.88449700000001,-46.99379246977122,-0.3694652136062879,77.01034500156464,0.0667450875043869,0.5560916662216187,-0.3084432780742645,,,,,
7.912849000000051,-54.315196417024175,0.5070480032519559,72.20107581040132,0.25993451476097107,0.6506718397140503,-1.0337878465652466,,,,,
7.922382999999968,-55.21970346665412,1.094794513430816,71.63851072220032,-0.1868099719285965,0.6430633068084717,-1.184032678604126,,,,,
7.931903000000034,-55.34149120206115,1.2727567569215283,70.95533615198838,-0.6119214296340942,0.4707361161708832,-1.5480031967163086,,,,,
7.941428999999971,-54.454273645575064,0.8799899016852577,70.02633559209258,-0.8620502352714539,0.6669043302536011,-0.9900424480438232,,,,,
7.960410000000024,-52.29054050423047,-1.065990641843721,67.45762496562755,-0.5039388537406921,-0.16158682107925415,-1.521278977394104,,,,,
7.9699170000000095,-50.239268432338136,-1.9085249132488649,66.39779467810921,-0.13654974102973938,-0.17987757921218872,-1.3930745124816895,,,,,
7.988946000000055,-46.14115407068984,-2.186226257567544,66.81709445912507,0.3666096329689026,-0.28790920972824097,-1.1171420812606812,,,,,
7.998637000000031,-44.12257293380086,-1.6417560739067996,68.70879551775091,0.3036487400531769,-0.15563082695007324,-0.8580958843231201,,,,,
8.008163999999965,-42.2275535288715,-0.9561310952230174,71.61012714290318,0.07992018014192581,0.06834477186203003,-0.5322747826576233,,,,,
8.017674000000056,-40.5513796580764,-0.40834601835966966,75.08353461774308,-0.18989013135433197,0.372211217880249,-0.10789412260055542,,,,,
8.027200999999991,-39.273509469533906,-0.15970479684241637,78.61249683288212,-0.3675701916217804,0.663530707359314,0.31256550550460815,,,,,
8.03667500000006,-38.513333067572,-0.2657449103441947,81.78882217486223,-0.39699479937553406,0.8725533485412598,0.8378555774688721,,,,,
8.046191000000022,-38.387511413247935,-0.7555225847069622,84.60687011018486,-0.3821273744106293,0.9798536896705627,1.5805037021636963,,,,,
8.055704999999989,-38.737613467468556,-1.6434559388644119,87.25578581400706,-0.3895849585533142,0.827049195766449,1.435487985610962,,,,,
8.06520999999998,-38.89748224914517,-2.6479217748267447,89.73648021311242,-0.5696254968643188,1.2414138317108154,2.2009830474853516,,,,,
8.074534999999969,-39.67620005931889,-3.436004073707867,91.94197524408452,-1.0218425989151,1.3451536893844604,1.6431002616882324,,,,,
8.084039999999959,-40.547126529637254,-3.90446189988096,93.90898745483167,-1.4665261507034302,1.2961516380310059,1.2950975894927979,,,,,
8.093555000000038,-40.972375438155034,-3.76822600072033,95.34575239013027,-1.8760234117507935,1.5734379291534424,1.5721230506896973,,,,,
8.103064000000018,-41.37956430262882,-2.985420514084006,95.90479935800556,-2.2800986766815186,1.4050936698913574,0.6890100240707397,,,,,
8.112585999999965,-41.14045253971966,-1.9424832261599714,95.53916591895133,-2.322406768798828,1.36929190158844,0.5868468284606934,,,,,
8.122095000000058,-40.64656931605122,-0.778520791560265,93.89498360003387,-2.122493028640747,1.313561201095581,0.8704597353935242,,,,,
8.131603000000041,-40.29395321659876,0.1959649945285714,91.12306141891295,-1.6389403343200684,1.0100349187850952,0.2136932611465454,,,,,
8.141114000000016,-39.92854649016826,0.7108079278392768,87.79552084087474,-0.8508538007736206,0.8989706039428711,0.3204086422920227,,,,,
8.150811999999974,-39.92655714291941,1.0444110903477146,84.27973485517484,-0.2525940537452698,0.7168625593185425,0,,,,,
8.160316999999964,-40.185353707620166,1.347811093054634,81.22871261436002,0,0.5614045858383179,-0.4878496825695038,,,,,
8.169817999999964,-40.49989779641907,1.7551706119679071,78.99250539344075,0,0.513735294342041,-0.5917486548423767,,,,,
8.18867499999999,-40.32599961127537,4.243455263658046,76.29093206957167,-0.6601262092590332,0.49335959553718567,-1.0175186395645142,,,,,
8.198231999999962,-39.367670981419764,6.09677613914319,75.23653282915983,-0.8360118865966797,0.4096459150314331,-1.1111208200454712,,,,,
8.20769800000005,-37.54277479034722,8.05440362490249,73.94781861981674,-0.8167122602462769,0.18243345618247986,-1.406395435333252,,,,,
8.217241000000058,-34.496882512999555,9.842649713876988,72.32410902169774,-0.6284711360931396,0.26251065731048584,-0.9680789709091187,,,,,
8.236259000000018,-27.451616292482104,12.82787183314172,68.25794495737237,0.4638086259365082,-0.8389222025871277,-1.4537622928619385,,,,,
8.245934000000034,-21.566210134860743,14.257395620433314,66.6314034747948,0.777716875076294,-0.14825722575187683,-0.04251617193222046,,,,,
8.255427000000054,-16.18300522573951,15.28156203028731,65.89796410233384,1.148574709892273,-0.5224323272705078,0.11463356018066406,,,,,
8.274441000000024,-3.7013976597461338,16.33750941958283,68.692180371153,0.6758850812911987,-0.42696595191955566,0.10972434282302856,,,,,
8.293488000000025,8.235396645621751,14.975182589776296,75.5897646926305,-0.4972485899925232,-0.7289896607398987,-0.45212554931640625,,,,,
8.302980000000048,13.914659401456028,14.030509412673005,79.23448382126931,-0.9961029291152954,-0.2413327842950821,0.26329344511032104,,,,,
8.312494000000015,17.936852995241484,13.485502919307116,82.25112357518798,-1.1654155254364014,-0.2975620627403259,0.07684910297393799,,,,,
8.321815000000015,20.394704133577008,13.491850333667669,84.58594920109219,-0.9979236125946045,-0.5397486686706543,-0.5237982273101807,,,,,
8.341016999999965,20.908531762787415,12.963582121071981,87.87275996150093,-1.4178041219711304,0.08719435334205627,0.04924416542053223,,,,,
8.350526000000059,18.29886888594702,11.206047899660147,89.28976391526352,-1.3270483016967773,0.2551174461841583,0.21609503030776978,,,,,
8.369560999999976,9.038878131105461,9.695416677939571,93.97854915566131,-1.5760180950164795,1.5173619985580444,1.3294496536254883,,,,,
8.388568999999961,-4.240054897347834,11.654024462175792,98.00275343794884,-0.60567706823349,1.7455910444259644,1.364522933959961,,,,,
8.39808400000004,-11.622402936606708,12.977911865552427,98.69280723694824,-0.17804017663002014,1.8134928941726685,0.6077038645744324,,,,,
8.416928999999982,-25.872307209106193,13.270468521657468,98.84360119852644,0.5399055480957031,1.8158899545669556,0.7046446204185486,,,,,
8.426445000000058,-32.93164863579883,12.733681299459482,99.09736327616598,0.5793238282203674,1.5738039016723633,0,,,,,
8.445469000000003,-44.36791173246446,11.369632647344964,101.36460972527152,0.24345427751541138,1.668852686882019,0.13929450511932373,,,,,
8.454990000000066,-49.198738090787906,10.91510240937253,102.63069955176898,-0.34554511308670044,1.6580288410186768,-0.20961639285087585,,,,,
8.464481999999975,-53.237610193255755,10.167413252319049,103.72465765427663,-0.8810353875160217,1.6503254175186157,-0.4205547571182251,,,,,
8.47398899999996,-56.22463654250403,8.853696180295588,104.53083369931156,-1.2250194549560547,1.72774076461792,-0.2599453926086426,,,,,
8.483510000000024,-58.37431328329735,7.038942256330944,104.82758051822415,-1.3994033336639404,1.6182632446289062,-0.6541137099266052,,,,,
8.493118999999979,-59.54628137814645,4.919137895559509,104.77632773082196,-1.2930070161819458,1.4734493494033813,-0.6642793416976929,,,,,
8.502534999999966,-59.72024556613829,2.891989226703777,104.48617298420311,-1.0662833452224731,1.4067903757095337,-0.7509679794311523,,,,,
8.521638000000053,-57.74784965457263,0.21051571220330817,104.06361784277905,-0.8591060638427734,1.2609609365463257,-1.3732507228851318,,,,,
8.531151000000023,-55.76639288650375,-0.37858422098583205,104.37922532850688,-0.9279581904411316,1.2903176546096802,-1.3841404914855957,,,,,
8.540650000000028,-53.6073455367445,-0.6328975430422809,104.88331975662902,-1.1307730674743652,1.06258225440979,-1.6493840217590332,,,,,
8.55007999999998,-51.041732858334605,-0.7981046711964936,105.48637343288978,-1.3947392702102661,0.7763177752494812,-0.9855376482009888,,,,,
8.559596000000056,-47.890201830345326,-1.18333229793227,106.23249872260573,-1.6332684755325317,0.4076845347881317,-0.48294615745544434,,,,,
8.569094000000064,-43.881132003478406,-1.9310339012825575,107.19646833291264,-1.4713786840438843,0.3399660885334015,0,,,,,
8.578802999999994,-40.1063605601674,-2.597222021523927,108.07802997803091,-1.099928617477417,0.09821856021881104,0.47270768880844116,,,,,
8.597826000000055,-33.278730764112495,-2.993749008614027,110.3015421870553,-0.13841214776039124,0,0.7580264806747437,,,,,
8.607338000000027,-31.24480466124472,-3.1383960713510985,112.46489952346025,0.4727243185043335,0,1.1744837760925293,,,,,
8.616839000000027,-30.577172209092826,-3.0442492106984025,115.26233259113236,0.7400828003883362,-0.14964348077774048,0.7648440003395081,,,,,
8.626346000000012,-30.425941058365325,-2.949775135520006,118.46472168329525,0.7578350901603699,0.5088800191879272,1.5569171905517578,,,,,
8.635853999999995,-31.84230014538329,-3.040550267213113,121.52857811345883,0.6979353427886963,0.8181427717208862,1.755458116531372,,,,,
8.654881000000046,-37.71836674213669,-3.476081487219232,125.03571697658118,0.3304384648799896,1.3389970064163208,1.3619157075881958,,,,,
8.664211000000023,-40.789311284903086,-3.9885475239376107,125.067345378692,0.13435615599155426,1.6899288892745972,1.347458839416504,,,,,
8.683258000000023,-47.22147485965332,-4.864740023009893,122.78467383778901,-0.24129405617713928,1.0139060020446777,0.2878776788711548,,,,,
8.702254000000039,-49.48268384631225,-2.915422079038714,119.68741006541399,-0.38690146803855896,1.305553913116455,0.5951768755912781,,,,,
8.711760000000027,-50.11534162045217,-0.7060109996294752,118.3354595381598,-0.2892744243144989,1.0071429014205933,-0.1560121476650238,,,,,
8.721273999999994,-49.87482479820553,1.9448819857075903,117.07015360488218,-0.4013233780860901,1.1311861276626587,-0.03471261262893677,,,,,
8.730793000000062,-49.549611328538745,4.343939456876236,115.82642215478711,-0.6085994839668274,1.0176756381988525,-0.2769165635108948,,,,,
8.740306000000032,-49.17587025736432,5.999284276881929,114.42303343945777,-0.7840255498886108,0.8472540974617004,-0.5441608428955078,,,,,
8.749828999999977,-48.73888976613043,6.869578901703432,112.5526800547965,-0.9802205562591553,0.7607165575027466,-0.7322522401809692,,,,,
8.768838999999957,-49.05685503333341,6.891221069019878,107.49504429391402,-1.1245371103286743,0.2601996660232544,-0.8749532699584961,,,,,
8.77834800000005,-49.60978066389468,6.805661030754007,104.98940129178465,-1.0803933143615723,0,-0.9666122198104858,,,,,
8.787859000000026,-50.34318106399099,7.208150724542645,103.00064166684494,-0.9877699613571167,-0.08459246158599854,-0.8716504573822021,,,,,
8.797362000000021,-51.42940683269048,8.166388128051425,101.75270625657176,-0.8738232254981995,-0.22478795051574707,-1.1765010356903076,,,,,
8.806875999999988,-52.32640772083852,9.518907136496386,101.34582653408224,-0.7680026888847351,0,-0.9759005308151245,,,,,
8.81640200000004,-53.29658584775979,10.922903959974983,101.58427126515829,-0.7104352116584778,0.1486363410949707,-1.0270766019821167,,,,,
8.825904000000037,-54.075389842175255,11.90342192521403,102.32299024187073,-0.7321954965591431,0.2352837324142456,-1.1321706771850586,,,,,
8.84494200000006,-54.69684017770579,11.028099508244008,105.04157172728935,-0.6193270683288574,0.5318635702133179,-0.6953632235527039,,,,,
8.864152999999988,-54.1912848057461,6.698870969188243,109.05410766429213,-0.3231622278690338,0.7375891804695129,0,,,,,
8.892483999999968,-52.548881098238226,0.03979313058430287,117.15020308126404,0.5455472469329834,0.9514988660812378,0.9026728868484497,,,,,
8.90197599999999,-51.859875868205286,-1.2039114053832036,119.94500874217893,0.7312199473381042,1.2118704319000244,0.9789390563964844,,,,,
8.911500000000046,-51.55581385071848,-2.035108768944336,122.26813927242834,0.7386640310287476,1.2980540990829468,1.9244287014007568,,,,,
8.921005000000036,-51.4032131854198,-2.6956260558184346,123.9397556519744,0.699317991733551,1.4570643901824951,2.11491322517395,,,,,
8.940029999999979,-51.045852872649476,-4.637289740194599,125.28895841355866,0.3511941432952881,1.5227234363555908,1.6892951726913452,,,,,
8.949547000000052,-50.21706459582752,-5.688787595604569,124.71677676371291,-0.09507782012224197,1.4962055683135986,1.5764696598052979,,,,,
8.968560000000025,-47.3397526966837,-6.818676243901539,121.79991030890189,-0.7068883776664734,0.9815114736557007,1.0469274520874023,,,,,
8.978253999999993,-45.5343553763889,-6.249412526981449,119.88391072379315,-0.7887514233589172,0.6948011517524719,0.8067597150802612,,,,,
8.987779000000046,-43.83539008357434,-4.7944333102863625,117.9916823965341,-0.8129820227622986,0.4837566018104553,0.4467845559120178,,,,,
9.006808999999976,-40.87085382480843,-0.6669718681285821,115.14284155228096,-0.6060364246368408,0.4932869076728821,0.052916526794433594,,,,,
9.016296000000011,-40.24611963274564,1.3985485379534073,113.83054700500772,-0.6895122528076172,0.29770490527153015,-0.4649437963962555,,,,,
9.025647000000049,-39.92189060360379,2.9623772794253296,112.45849049714022,-0.7837232351303101,0.12141996622085571,-1.0058139562606812,,,,,
9.035167000000001,-39.76526997867971,4.038970910864302,110.8407339312021,-0.9269653558731079,0.14079201221466064,-0.890294075012207,,,,,
9.054159000000027,-40.262534874548166,5.154373043342144,107.107940847539,-1.2481651306152344,0,-0.9672181010246277,,,,,
9.063675999999987,-40.93148502983753,5.585472655405156,105.45928769917788,-1.1669784784317017,-0.1463136076927185,-1.0742745399475098,,,,,
9.073192000000063,-41.73472340306143,6.265784878264081,104.26751596782056,-1.0653642416000366,-0.2510889768600464,-1.080965280532837,,,,,
9.082690999999954,-42.46250310981382,7.09999583405769,103.83547906111019,-0.8835048675537109,-0.14428949356079102,-1.1105191707611084,,,,,
9.10174500000005,-44.099804235767884,8.381274427137665,105.41563514001538,-0.5253360271453857,0.07433497905731201,-1.182578682899475,,,,,
9.111233999999968,-44.74376883539803,8.170527611743607,107.23654234673181,-0.4782276749610901,0.34275394678115845,-0.9011493921279907,,,,,
9.120757000000026,-45.415287256728135,7.111624237465708,109.51341564994252,-0.47557923197746277,0.530819296836853,-0.8099836111068726,,,,,
9.130262000000016,-45.98830591406327,5.279573609396888,112.02898020587872,-0.5383867621421814,0.7312886118888855,-0.5422412157058716,,,,,
9.13978499999996,-46.582425855453664,2.7661374942263857,114.68149902881693,-0.5734034776687622,0.9439153671264648,-0.11745113134384155,,,,,
9.149268000000006,-47.35977073683177,-0.21041811721414938,117.52670584217637,-0.3979801833629608,0.7868751287460327,-0.36549362540245056,,,,,
9.158784999999966,-47.41994677467814,-3.307374085577019,120.54762688931498,-0.1594991683959961,1.117470145225525,0.06194114685058594,,,,,
9.168303000000037,-47.503066784581094,-6.410966050554171,123.69402459352808,0.10929133743047714,1.4930155277252197,0.49945926666259766,,,,,
9.177820999999994,-48.00282110857902,-9.484462388387644,126.79823003397306,0.5404562950134277,1.4728233814239502,0.5711248517036438,,,,,
9.187311000000022,-48.34789656895773,-12.433610751576287,129.56886232652954,0.8090287446975708,1.6165900230407715,1.424849510192871,,,,,
9.206326999999987,-48.113080222738105,-18.814344501519464,133.6659675001283,1.0157532691955566,1.4529681205749512,1.4758338928222656,,,,,
9.216023000000064,-46.984461878245234,-22.03076430662955,134.55115360545514,0.9579741954803467,1.358446717262268,1.9805285930633545,,,,,
9.23512100000005,-42.61862038544009,-24.974136318548226,132.64291553187235,0.08244156837463379,0.8113268613815308,1.6339740753173828,,,,,
9.244563999999968,-40.34285409275047,-24.235389746743262,131.00050002769427,-0.14055168628692627,0.6148419380187988,1.6816308498382568,,,,,
9.254072000000065,-38.82791570993038,-22.10908191247375,129.56097101963684,-0.14983375370502472,0.5466316342353821,1.3339835405349731,,,,,
9.27308800000003,-38.2552510750421,-15.818458978070362,127.8348977218257,0.15803658962249756,0.5763998627662659,0.6559810638427734,,,,,
9.282613999999967,-38.49740236046701,-12.825531475007024,127.11324369916137,0,0.5976518392562866,0.3072642683982849,,,,,
9.292124000000058,-38.70542197800587,-10.630092221419208,126.13314828673461,-0.352039098739624,0.6211591362953186,-0.057245850563049316,,,,,
9.301458000000025,-38.90979771551144,-9.35230084426899,124.65015887207196,-0.7336297631263733,0.6924510598182678,-0.16176223754882812,,,,,
9.320471999999995,-40.182177213475335,-8.333463054231311,120.15834292010115,-1.395093321800232,0.24532243609428406,-0.5280820727348328,,,,,
9.329981999999973,-41.24914781755893,-7.806361870838042,117.78659295868638,-1.432823657989502,0.04347187280654907,-0.5199457406997681,,,,,
9.339485999999965,-42.821122232612694,-6.652549690941075,115.71662722070222,-1.2027419805526733,-0.1471354365348816,-0.6926808953285217,,,,,
9.349005000000034,-44.70976784629269,-4.631590429483192,114.09617847317007,-0.8974985480308533,-0.21669405698776245,-0.6934548020362854,,,,,
9.36804600000005,-48.61656009506999,0.5161812700131021,112.44328548122769,-0.7744658589363098,0.127355694770813,-0.761755645275116,,,,,
9.377541000000065,-50.70297216707887,2.3969878987867457,112.01337317074012,-0.7826103568077087,0.3786565661430359,-0.7436844706535339,,,,,
9.38706400000001,-52.95257905626894,3.2011640638696996,111.4872369882374,-0.9310814142227173,0.6082777976989746,-0.8178020715713501,,,,,
9.396575999999982,-55.270417694551746,2.5129942658335844,111.08907774154135,-1.0177533626556396,0.8068937063217163,-0.5845720767974854,,,,,
9.415607000000023,-59.799458738389475,-2.400719623492462,111.70307423096364,-0.6424148082733154,0.9940036535263062,0.07279396057128906,,,,,
9.425272000000064,-61.98587098764068,-5.181473548349576,113.21871314380736,-0.215818390250206,0.695418119430542,-0.47697746753692627,,,,,
9.444118000000003,-63.53364812325761,-8.52391374383594,119.50389521798763,0.4406431019306183,1.3556370735168457,0.5331476926803589,,,,,
9.453618000000006,-63.865486474086886,-9.155025490852646,123.77191834999749,0.506119966506958,1.4127684831619263,0.6693300008773804,,,,,
9.47263799999996,-63.117460963364785,-11.206282656050991,133.25665258466591,0.5823564529418945,1.4606603384017944,1.4582887887954712,,,,,
9.482143000000065,-62.66145378942346,-13.294192231305384,137.43095626390812,0.626987099647522,0.9937011003494263,1.1899073123931885,,,,,
9.491835000000037,-61.811804450604555,-15.958027322816548,141.15257436000067,0.7861872911453247,0.8399790525436401,1.8873542547225952,,,,,
9.501350000000002,-61.18809529046282,-18.659239814062783,144.50033017186433,0.9731795787811279,0.4976682662963867,1.7621893882751465,,,,,
9.520384000000035,-60.668178677022695,-21.201017610449888,151.00487011985666,0.6784070730209351,0.19285333156585693,1.4817357063293457,,,,,
9.52989100000002,-60.84433113832345,-20.269671630595596,154.18739436899864,0.31640052795410156,0.257360577583313,1.0361289978027344,,,,,
9.539405999999985,-61.00787854530851,-18.13568112804146,156.95693298209093,-0.16616080701351166,0.5114457607269287,0.7097094058990479,,,,,
9.548733999999968,-61.02105848266377,-15.500306444538305,158.8664246140505,-0.643275260925293,0.6957252025604248,0.41795992851257324,,,,,
9.558255000000031,-60.59991075588471,-13.076490300472427,159.5284046146338,-1.032901644706726,0.8329054713249207,0.26877474784851074,,,,,
9.577277999999978,-58.49466751694568,-10.37152571306186,156.71448382326085,-1.0078613758087158,0.7600291967391968,0.2009052038192749,,,,,
9.59647300000006,-54.93634028828477,-8.967209577082196,150.58115929967383,-0.29169169068336487,0.45638754963874817,0.11765110492706299,,,,,
9.605981000000043,-52.93410102373301,-7.523108432334265,147.7501557754209,-0.37042316794395447,0.39895302057266235,0,,,,,
9.624990000000025,-49.510105761426765,-2.918501309008926,144.13995724952755,-1.5030112266540527,0.9227818846702576,2.621962070465088,,,,,
9.634329999999977,-49.95014113487097,-0.5215341418396993,142.71024354064576,-1.7437076568603516,0.7283775806427002,0.5366646647453308,,,,,
9.643849000000046,-50.90574387388787,1.4828779153175988,141.06368370271707,-1.4398034811019897,0.6475146412849426,-0.3557617962360382,,,,,
9.653351000000043,-51.979083538428654,3.4501664775447316,138.42286570205263,-1.1865984201431274,1.0418282747268677,0,,,,,
9.672379999999976,-55.770717330958284,5.7484403631405625,132.07233387284148,-0.10176920890808105,1.0248875617980957,0,,,,,
9.68187899999998,-58.00161285347753,6.300069922538459,129.474105347248,0.5712510943412781,0.9453796148300171,-0.11432942748069763,,,,,
9.70089900000005,-61.40473757114881,7.3718940320088935,127.8655433931304,0.843115508556366,1.3706450462341309,0.32132488489151,,,,,
9.710437999999954,-62.54449923282019,7.8647322238921875,129.2586807451408,0.6342459321022034,1.277629017829895,0.41614291071891785,,,,,
9.71992499999999,-62.498747667096495,8.191748904646326,131.713968973481,0,1.4871280193328857,0.9909171462059021,,,,,
9.738945000000058,-60.976827616611054,6.829236208379483,138.40110816453907,-0.3416404724121094,1.2114577293395996,0.9911154508590698,,,,,
9.748470999999995,-59.73074729172237,5.22902048544259,141.44521205647234,-0.14984236657619476,1.0774227380752563,1.0647883415222168,,,,,
9.758150999999998,-58.75964703067542,3.1649509863164416,144.32181916879966,0.4585988521575928,0.7504429221153259,0.999854564666748,,,,,
9.767664999999965,-57.91765865275624,1.0133609585833354,147.24313581981025,1.143763542175293,0.5011301040649414,0.38638371229171753,,,,,
9.777162999999973,-57.32457627169297,-0.920946647097536,150.62424821530354,1.453522801399231,0.6181032061576843,1.2528469562530518,,,,,
9.786688000000026,-57.85668572629205,-2.5756289831136994,154.80220138702356,1.4531762599945068,0.32416045665740967,0.758768618106842,,,,,
9.815215999999964,-61.49178004991053,-5.12024163620582,168.6040608430047,-0.24403291940689087,0.4567130208015442,1.0045368671417236,,,,,
9.824726000000055,-62.583733971208886,-5.894024383867932,172.21155620980156,-0.6242212057113647,0.6433016061782837,1.2842166423797607,,,,,
9.834059000000025,-63.33540413011587,-6.684998370199716,174.29258049863574,-1.1608490943908691,0.615908145904541,0.721666693687439,,,,,
9.843557000000033,-63.430721284141505,-7.642862151063435,175.1207424869447,-1.4795249700546265,0.7121347784996033,0.5925636291503906,,,,,
9.853079999999977,-63.11916846093461,-8.619826483021278,174.7775804079607,-1.2912179231643677,0.7029228806495667,0.45097824931144714,,,,,
9.862586999999962,-62.39783909671411,-9.062719109953118,172.97788475359735,-0.947015643119812,0.6307858228683472,0.37969696521759033,,,,,
9.872300999999993,-61.488698461415545,-8.765755078079598,170.3969371118212,-0.4702380895614624,0.6634162664413452,0.5421279668807983,,,,,
9.891304999999988,-60.44412482639775,-5.796088476292369,165.4916397684212,0.23465293645858765,0.7531268000602722,0.6072924137115479,,,,,
9.900815999999963,-60.337102434560194,-3.105565557678412,163.46882972922253,0,0.8415144085884094,0.22762015461921692,,,,,
9.919666000000007,-59.656871586347314,2.9182349553384337,160.38032842121302,-0.6222333908081055,1.1200010776519775,-0.23170343041419983,,,,,
9.929179999999974,-58.9707292037521,5.533323024199724,158.77787675518587,-0.9126613140106201,1.25985586643219,-0.09337419271469116,,,,,
9.938685999999961,-58.26535726132772,7.480273421888764,157.0426086233536,-0.9859827756881714,1.2294591665267944,0.10851126909255981,,,,,
9.948191000000065,-57.646347112013075,8.779774304299547,155.2103803246842,-0.8578557968139648,1.3157377243041992,0.3309897780418396,,,,,
9.957701000000043,-57.582792632593396,9.5636612709727,153.46292550194408,-0.660115659236908,1.1547062397003174,0.2228984236717224,,,,,
9.967225999999982,-57.70017016851348,9.907703763232181,152.34716280100008,-0.3762754797935486,1.0783103704452515,0.3085983991622925,,,,,
9.976733999999965,-58.10517200039877,9.876902973126617,152.1842221173593,-0.0381336510181427,1.0386537313461304,0.4562186002731323,,,,,
9.995789000000059,-59.48061012088713,9.008761351878768,155.31871977308433,0.3297407031059265,0.8771175742149353,0.5410821437835693,,,,,
10.024317999999994,-63.41312947465408,5.356752948068791,166.14977930778804,0.5970677733421326,0.8431700468063354,0.3191819190979004,,,,,
10.033812000000012,-65.28076170791563,3.5790247917826026,170.26785115232727,0.9791966676712036,0.7127545475959778,0.3059684634208679,,,,,
10.043286999999964,-66.918945852394,1.8252824306459405,174.23303485932604,1.5136961936950684,0.48821380734443665,0.05847519636154175,,,,,
10.052802000000042,-67.83780317447143,0.29953645135809126,178.13962349440385,1.7979011535644531,0.43553388118743896,0.19289982318878174,,,,,
10.071833999999967,-67.57413877564512,-1.6425000973793547,-174.67480333849926,2.1253397464752197,0.1032915711402893,0.2717505991458893,,,,,
10.081512999999973,-66.26679480017,-2.2318634717509367,-171.78778797610406,1.3098489046096802,0.09258407354354858,0.3519080579280853,,,,,
10.100545000000011,-62.111587327030236,-4.403977201324506,-168.65897743675956,0.06904565542936325,0.31290143728256226,1.4749594926834106,,,,,
10.110048000000006,-59.70015226504962,-5.419831097739235,-170.01061277345866,-0.479824960231781,0.2763238549232483,0.9571251273155212,,,,,
10.129080000000044,-55.18200156887904,-7.0907137113854235,-175.2359632958331,0.3785857558250427,0.12487882375717163,1.1681978702545166,,,,,
10.138577000000055,-53.9554962313717,-6.753495535454054,-178.28308895265917,0.767026424407959,0.05946606397628784,0.8654587864875793,,,,,
10.148099000000002,-53.51205429236251,-5.809708713733847,179.51633960099218,1.0010641813278198,0.16080588102340698,0.28404849767684937,,,,,
10.157601,-53.65355472339348,-4.579573487570444,178.56549923964533,1.1322671175003052,0.4849367141723633,0.48519766330718994,,,,,
10.185970999999995,-57.41697063359893,-0.9918220002260324,179.02647135477588,-0.7351753115653992,1.2365186214447021,0.35019785165786743,,,,,
10.195469000000003,-59.152209886049576,-0.8033024471869477,179.1150117515469,-1.2411099672317505,1.268815279006958,0.1309809684753418,,,,,
10.20498299999997,-60.507698802771145,-1.1066157636146188,178.91396572958212,-1.4779645204544067,1.5521864891052246,0.4211159646511078,,,,,
10.21448799999996,-62.059868793298534,-1.731882996930597,178.71480546042073,-1.1860811710357666,1.3636460304260254,0.16661572456359863,,,,,
10.22402599999998,-63.21197596005605,-2.1033882721387913,178.5716017459695,-0.7236000895500183,1.2494580745697021,0.033299922943115234,,,,,
10.233511000000021,-63.99358686000926,-1.8494983985437405,178.72059103851046,-0.24702705442905426,1.2793163061141968,0,,,,,
10.243024999999989,-64.60577178963858,-0.8985699590877309,179.42154946029262,0.2668536901473999,1.1369247436523438,-0.12686505913734436,,,,,
10.25255500000003,-64.61838584469203,0.61141414233258,-179.34157727759487,0.5565098524093628,1.1756309270858765,-0.036902397871017456,,,,,
10.262068,-64.30121378538443,2.12394000087966,-177.55854653389255,0.673694908618927,1.1353470087051392,0.09550055861473083,,,,,
10.271599000000037,-63.72000891584638,2.9429407081570127,-175.26382718713276,0.9071016311645508,0.9170876741409302,0,,,,,
10.281084999999962,-62.619130832415564,2.6277705304762975,-172.78735312829377,1.3020057678222656,0.688344419002533,-0.07968458533287048,,,,,
10.290575999999987,-61.02206638722328,1.031119884799417,-170.42164764640975,1.6381736993789673,0.6674511432647705,0.3386644423007965,,,,,
10.300096000000053,-59.816203585837286,-1.7547335290155135,-168.14455437673314,1.8723037242889404,0.18247246742248535,0.2077728509902954,,,,,
10.309783000000039,-58.28481559922869,-5.316842516355996,-165.89024494638664,1.9256104230880737,-0.2825050950050354,0.2112574577331543,,,,,
10.319299999999998,-55.75107372252836,-9.04983067385411,-163.75262900126407,1.6061785221099854,0.16259849071502686,1.1234016418457031,,,,,
10.338310999999976,-52.109054920461425,-14.950190989933793,-161.0409278718927,0.6367504000663757,-0.09158289432525635,1.563777208328247,,,,,
10.347837000000027,-50.55526463439419,-16.155450378617008,-161.1413903852139,0.5749846696853638,0,1.0705983638763428,,,,,
10.357339000000024,-49.31394094555382,-16.13229864468649,-162.18362786807765,0.723237156867981,-0.06095403432846069,0.6380709409713745,,,,,
10.366844000000015,-48.27478280154367,-15.611714438520307,-163.53627352354405,0.9391415119171143,0.03654676675796509,0.3800209164619446,,,,,
10.376359999999977,-47.5385570213814,-15.143420650299491,-165.04389577643585,1.13686203956604,0.21480733156204224,0.08924710750579834,,,,,
10.385856999999987,-46.946228934162676,-14.92013486730306,-167.01023576256074,1.0276576280593872,0.43154603242874146,0.06389474868774414,,,,,
10.395380000000046,-46.50679688587127,-15.35154514281897,-169.35976222061421,0.6824420094490051,0.7271095514297485,0.03910762071609497,,,,,
10.404911999999968,-46.37389010910229,-16.51611296808135,-172.00418612573415,0.376665860414505,0.8244887590408325,0.11527431011199951,,,,,
10.414416999999958,-46.29324810346529,-17.879345862328943,-174.95642068442984,0.041838139295578,0.8916610479354858,0.3241279721260071,,,,,
10.423546999999985,-46.280186796309685,-19.006467915487157,-177.9900367126634,-0.39042219519615173,0.7215717434883118,0.06866538524627686,,,,,
10.433238999999958,-45.89760533493719,-19.616670004917815,179.33961898362762,-0.6176431775093079,0.859107494354248,0.5518832206726074,,,,,
10.442764000000011,-45.63496767066902,-19.292366962520706,176.96776767487407,-0.760164737701416,1.0711904764175415,0.8009803295135498,,,,,
10.452276999999981,-45.69431685239635,-17.94669463505139,174.87857047826094,-0.8254814147949219,0.9935593008995056,0.32795149087905884,,,,,
10.471306000000027,-44.988414279869694,-13.769638516036695,171.59823682172023,-0.5625369548797607,1.2978445291519165,-0.1642131209373474,,,,,
10.480786999999964,-44.358936348860446,-11.873220427044267,170.0591345865385,-0.5890361666679382,1.2919865846633911,-0.31704431772232056,,,,,
10.490313000000015,-43.56207991902197,-10.656203891748776,168.4504973388122,-0.6931115984916687,1.3462989330291748,0.13871747255325317,,,,,
10.49986899999999,-42.996627291855006,-10.151189652262019,166.63974140815066,-0.7817895412445068,1.1448814868927002,-0.2299838662147522,,,,,
10.509348000000045,-42.47787059561539,-10.068732367872824,164.68706316105116,-0.8503992557525635,1.0040620565414429,-0.355543851852417,,,,,
10.518867999999998,-42.15208745132603,-10.134319942752352,162.86638379369114,-0.8576273918151855,0.8550949096679688,-0.49092918634414673,,,,,
10.52835600000003,-41.98873473439907,-10.136332418937863,161.55932603391568,-0.6461139917373657,0.7102670669555664,-0.5601518750190735,,,,,
10.538048000000003,-41.84880028944543,-9.892073570420074,161.01023598076304,-0.27225160598754883,0.7304456233978271,-0.28317791223526,,,,,
10.547556999999983,-41.92385000117987,-9.484720040386382,161.41674073881205,0.2315477728843689,0.724887490272522,-0.18975496292114258,,,,,
10.557060999999976,-42.189838929647955,-9.109847701054031,162.77290448876428,0.824099063873291,0.7006950378417969,-0.0923079252243042,,,,,
10.566406000000029,-42.545816707354795,-8.917213389976393,165.0057572507833,1.3515350818634033,0.6794766783714294,0,,,,,
10.575906000000032,-43.01326838804215,-9.13268922713144,167.962083749784,1.7877490520477295,0.6752296686172485,0.19893378019332886,,,,,
10.585421999999994,-43.74482125707127,-10.000218847419724,171.51117134802908,1.984351396560669,0.5962731242179871,-0.07556557655334473,,,,,
10.595099000000005,-44.64713835087388,-11.600849892288577,175.4525903250012,2.1206068992614746,0.49463820457458496,0.3601376414299011,,,,,
10.604622000000063,-45.498335386977956,-13.527692964417675,179.3675586208106,2.3156466484069824,0.4159945547580719,0.9502137303352356,,,,,
10.614143000000013,-46.29938789449394,-15.360190329835422,-177.09815100745428,2.1692323684692383,0.38746583461761475,1.2146357297897339,,,,,
10.623630000000048,-47.36622638413716,-17.222426485768132,-173.7053303211529,1.6673288345336914,0.32421720027923584,1.5203931331634521,,,,,
