timestamp,Roll,Pitch,Yaw,Acc X,Acc Y,Acc Z,Gyro X,Gyro Y,Gyro Z,Acc Magnitude,Gyro Magnitude
0.0,7.702533756334099,13.22047943753808,69.52510709508816,-0.7533911466598511,-0.3648573160171509,-0.6447505354881287,,,,,
0.009502999999995154,6.555005224703844,13.766985444545675,69.84189871299425,-0.6721258163452148,-0.2857000231742859,-0.6478872299194336,,,,,
0.019192000000202825,5.498883971866333,14.219448729728708,70.07440967608262,-0.5997945666313171,-0.21864977478981018,-0.64615797996521,,,,,
0.028641000000106942,4.741561535735863,13.501879981661949,70.27641553082384,-0.5809793472290039,-0.16293521225452423,-0.6395648121833801,,,,,
0.038219000000026426,3.9552989383108863,13.740450066078784,70.36515524183534,-0.5974241495132446,-0.12954013049602509,-0.6371583342552185,,,,,
0.04771300000015799,3.338212682854044,13.902070930087374,70.34991440838333,-0.6459219455718994,-0.10636089742183685,-0.6259269714355469,,,,,
0.05724300000019866,2.8639468592584554,14.028544861408049,70.20184885823411,-0.6794014573097229,-0.09879036247730255,-0.6241213083267212,,,,,
0.0667430000000877,2.4700808194947266,14.166542262612397,69.9259615472416,-0.6668148040771484,-0.12015588581562042,-0.6414129137992859,,,,,
0.07626900000013848,2.1139605116952493,14.307941864870564,69.5362329908101,-0.6017121076583862,-0.15607337653636932,-0.6710585355758667,,,,,
0.08569400000010319,2.000285583964723,13.298073895532548,69.06697027600028,-0.484891414642334,-0.20041321218013763,-0.7155998945236206,,,,,
0.09502500000007785,1.8452564538406593,12.158840449478392,68.48769075606195,-0.35497939586639404,-0.24330401420593262,-0.7715609073638916,,,,,
0.10452900000018417,1.5915873239900415,10.753481394214768,67.85247062944755,-0.21068498492240906,-0.310112863779068,-0.8975957632064819,,,,,
0.11403500000005806,1.2866590473065829,9.029551440471945,67.13970837392695,-0.23669776320457458,-0.3257365822792053,-0.846542239189148,,,,,
0.12373700000011922,0.8654693873641789,6.998852602068754,66.2544650866689,-0.2706111669540405,-0.447620689868927,0.9412814974784851,,,,,
0.13324600000009923,0.7982105623306545,5.506202862809727,65.09555310107913,-0.16233587265014648,-0.6021659970283508,2.439021348953247,,,,,
0.14274100000011458,1.468062248718906,5.244133342254785,63.63015883695687,-0.3357427716255188,-0.2712486684322357,-0.475757360458374,,,,,
0.15225600000007944,1.9521784162587,4.772434662528926,61.8651993392647,-0.33053314685821533,-0.5524847507476807,0.21039044857025146,,,,,
0.16160400000012487,2.730153647625802,3.82287564865882,60.19170973414483,0.172642320394516,-1.0635948181152344,-1.1669470071792603,,,,,
0.17128600000000915,4.096876691199792,3.372836270355088,59.13947304529338,-0.15216153860092163,-0.9312542080879211,0.4851285219192505,,,,,
0.18060900000000402,4.648710114411751,2.950536921376816,58.84268890124583,-0.5626169443130493,-1.155116319656372,-0.5588628053665161,,,,,
0.19030100000009043,5.0490346253818625,2.292012957496926,59.31494300308403,-0.5450750589370728,-1.0825790166854858,0.04437154531478882,,,,,
0.19979200000011588,5.146486405616877,2.2759827528233063,60.36512427033793,-0.7876468896865845,-0.8737027049064636,-0.2578042149543762,,,,,
0.2091320000001815,4.909401980663291,2.5495342991472096,61.461200295646165,-0.8812034726142883,-0.8781022429466248,-0.4702466130256653,,,,,
0.2188410000001113,4.703380827273092,2.671865553768644,62.094643216954545,-0.5599162578582764,-0.7725187540054321,-0.312339186668396,,,,,
0.22836400000005597,4.382183716420928,2.9666168839479266,62.020898074029176,-0.31809237599372864,-0.7234790325164795,-0.28813087940216064,,,,,
0.23786100000006627,3.8706237218628945,3.219414098558337,61.1702229783005,-0.2360897809267044,-0.7823917865753174,-0.37149578332901,,,,,
0.24737200000004123,3.30201156076301,3.0152489023935503,59.70357407252165,0.036800187081098557,-0.8244749903678894,-0.25299495458602905,,,,,
0.25687200000015764,2.659602290254076,2.689776225881583,58.08832958356014,0.09602434933185577,-0.914798378944397,-0.1311294436454773,,,,,
0.26638500000012755,2.0446228540092486,2.325311479782862,56.753748937991126,-0.07967372238636017,-0.9765519499778748,-0.26214516162872314,,,,,
0.2758920000001126,1.4732186522935686,1.7421962755376577,55.88657383050731,-0.12499183416366577,-0.9487782716751099,0,,,,,
0.2853970000001027,0.7434894598702018,1.354819997044878,55.713758916857394,-0.1122378557920456,-0.9011467695236206,-0.06291955709457397,,,,,
0.29491600000005747,-0.0936118771662994,1.3446625095662252,56.098190072279166,-0.2295352965593338,-0.7747727632522583,-0.18793463706970215,,,,,
0.3044400000001133,-0.9975509274726754,1.277816255976084,56.897123812187246,-0.16409096121788025,-0.6016032695770264,-0.2561309337615967,,,,,
0.31395100000008824,-1.9357860232683224,1.178375754903739,57.7489828055691,-0.04456005617976189,-0.49640220403671265,-0.2667282223701477,,,,,
0.32346000000006825,-2.7328688083462827,1.1318543346952377,58.445915500727544,-0.12052474170923233,-0.3826929032802582,-0.38158875703811646,,,,,
0.33296000000018466,-3.3635198901715,0.7838370104374786,58.86582288115775,-0.16320468485355377,-0.3353296220302582,-0.4174599051475525,,,,,
0.3425170000000435,-3.7717673580170663,0.16326090615301256,59.03503080459682,-0.1716073900461197,-0.3574851155281067,-0.3531770706176758,,,,,
0.35198300000001836,-3.895960723245809,-0.4650070653670469,59.09455474738538,-0.32459282875061035,-0.3867979645729065,-0.35934704542160034,,,,,
0.36156800000003386,-4.422115467141002,-0.6069970378826479,59.25225218278862,-0.4297976493835449,-0.4557110369205475,-0.3674403429031372,,,,,
0.3709950000002209,-4.709331783734514,-0.7902285638439531,59.70270058997431,-0.43373095989227295,-0.5275720953941345,-0.2691575288772583,,,,,
0.3805480000000898,-4.169122311663652,-1.211917558990581,60.43669381582831,-0.5184458494186401,-0.577006995677948,-0.26024436950683594,,,,,
0.3900660000001608,-3.5289771932961056,-1.5081448520269871,61.49947601150111,-0.554852306842804,-0.6237958073616028,-0.3038169741630554,,,,,
0.3995700000000397,-2.79924830791631,-1.7863889270249476,62.75235004442732,-0.48919594287872314,-0.6445809602737427,-0.2548496127128601,,,,,
0.40899100000001454,-2.050948476845625,-1.9920493312315248,64.00726965806119,-0.4905914068222046,-0.6510537266731262,-0.24650073051452637,,,,,
0.418585000000121,-1.3426406178294463,-2.2835037860237732,65.10127909907156,-0.4927523732185364,-0.6680572628974915,-0.2686372399330139,,,,,
0.428094000000101,-0.6764770224075984,-2.75234912278135,65.96052751019427,-0.45042842626571655,-0.6962820291519165,-0.258478045463562,,,,,
0.4376630000001569,-0.8245814527124068,-2.7123683080997436,66.7250547819686,-0.5368386507034302,-0.7063849568367004,-0.33289748430252075,,,,,
0.44707900000003065,-0.0968461396410605,-3.453696974540705,67.35070631607164,-0.6344407796859741,-0.6556469202041626,-0.05658233165740967,,,,,
0.4565980000002128,0.4566984064772543,-4.229882642099446,67.9958984178005,-0.5791642665863037,-0.7092138528823853,-0.06101030111312866,,,,,
0.46610500000019783,1.0448717895467907,-4.7916938129611015,68.8322291299548,-0.6802061200141907,-0.6589357852935791,-0.13720715045928955,,,,,
0.4756120000001829,1.5419007383319256,-5.394253040371847,69.91299517969335,-0.6645848751068115,-0.5555664300918579,0,,,,,
0.48514000000000124,1.8549465878457183,-6.077166555304467,71.2629686378267,-0.4980933666229248,-0.5353508591651917,-0.17595744132995605,,,,,
0.49465200000008736,2.2255059947739038,-6.665518859961513,72.90682498641074,-0.4951339364051819,-0.36728066205978394,-0.04795074462890625,,,,,
0.5041650000000573,2.471047438956358,-7.374514765260344,74.68257118735411,-0.5198730230331421,-0.2785089612007141,-0.09579360485076904,,,,,
0.5137380000001031,2.451540341488726,-7.641485077715441,76.46365920413909,-0.48862969875335693,-0.260821133852005,-0.18059855699539185,,,,,
0.5232600000001639,2.866372631923052,-7.736438339991184,78.05292802590392,-0.5973898768424988,-0.14940205216407776,-0.03632688522338867,,,,,
0.5327610000001641,3.2680470997417514,-7.732210668340646,79.39708064538183,-0.6280606985092163,-0.22686299681663513,-0.15430444478988647,,,,,
0.5422810000000027,3.914882121597746,-7.983709742414863,80.57529065083989,-0.47674182057380676,-0.2833828628063202,0,,,,,
0.5517810000001191,4.659485161445391,-8.240719041125036,81.80631534653378,-0.36235952377319336,-0.339123010635376,0,,,,,
0.5612930000002052,5.311381050578664,-8.646723864300355,83.32179653219993,-0.28812462091445923,-0.44419628381729126,-0.09936642646789551,,,,,
0.5708000000001903,6.198766139578785,-9.41043633310054,85.23387243747518,-0.2259073257446289,-0.4026128053665161,0.05651247501373291,,,,,
0.5802460000002156,7.3903482491513035,-10.598519684530972,87.47385412740886,-0.3566383123397827,-0.3429989814758301,0.14938968420028687,,,,,
0.5897560000000794,8.43681196109568,-11.999717705229342,89.91899873934051,-0.5973178744316101,-0.27640265226364136,0.18028521537780762,,,,,
0.5992510000000948,9.473660112020141,-13.606923905266408,92.280068367548,-0.7957450151443481,-0.1613643914461136,0.4114758372306824,,,,,
0.60875400000009,10.53003760670976,-15.242872234305885,94.36491118086938,-0.9766592979431152,-0.17431092262268066,0.4542997479438782,,,,,
0.6182570000000851,11.89370635663057,-16.87382666106679,95.95648480211071,-1.1416596174240112,-0.22695143520832062,0.6468127965927124,,,,,
0.6277780000000348,13.619414097578778,-18.590547458531386,97.01762183684967,-1.3505451679229736,-0.29441505670547485,1.128852128982544,,,,,
0.6372890000000098,15.400421061049972,-20.26568856367445,97.62402831367834,-1.416942834854126,-0.481170654296875,1.6033906936645508,,,,,
0.6467990000001009,17.009487911153318,-21.586585015299313,97.99405577201864,-1.6820117235183716,-0.6804882287979126,1.2641189098358154,,,,,
0.6561280000000806,18.425781053328077,-22.76655705889119,98.11538089367457,-1.7713755369186401,-0.8541463613510132,0.5069931745529175,,,,,
0.6656480000001466,19.748219444591715,-23.797959702679513,98.12918006038251,-1.6495811939239502,-0.9555567502975464,0.9801318645477295,,,,,
0.675139000000172,20.713203983751647,-24.54813231644817,98.21476009469852,-1.5268511772155762,-0.9198142290115356,1.4101788997650146,,,,,
0.6848410000000058,21.098216278484973,-25.424387044480316,98.31213557938086,-1.1949807405471802,-0.9327133893966675,1.3608222007751465,,,,,
0.6943459999999959,21.238610340402566,-26.63723916775662,98.4631853101226,-0.766526460647583,-0.8511290550231934,1.3234554529190063,,,,,
0.7038680000000568,21.297285598185738,-28.13902432848375,98.77128895812525,-0.5863286852836609,-0.6750843524932861,1.2684381008148193,,,,,
0.7133750000000418,21.34738592285574,-30.205944486899384,99.15161665478271,-0.5605207085609436,-0.5142018795013428,1.1065300703048706,,,,,
0.7228810000001431,21.52464927044728,-32.870416786310514,99.53816797087785,-0.7107280492782593,-0.40087276697158813,1.0911550521850586,,,,,
0.732401000000209,21.97910822682778,-35.825070844434045,99.98276951210208,-1.0461469888687134,-0.28170958161354065,0.8874170184135437,,,,,
0.7417150000001129,22.78213693929858,-38.88752218570821,100.40169639867572,-1.4227113723754883,-0.19056928157806396,0.601608395576477,,,,,
0.7512280000000828,24.083381363049238,-42.04021583857272,100.5594412243213,-1.4297244548797607,-0.20047606527805328,0.40954750776290894,,,,,
0.7607390000000578,25.83961130146972,-45.02073710178465,100.44101544573218,-1.2469007968902588,-0.09638398885726929,0.9463499784469604,,,,,
0.7702550000001338,27.7711594031282,-47.56427085742998,99.98315909610594,-1.1634150743484497,-0.2200114130973816,0.5063877105712891,,,,,
0.7797870000001694,30.485203725189038,-49.893390910023655,98.8329136922753,-1.0223851203918457,-0.2801879048347473,0.5427811145782471,,,,,
0.7894710000000487,34.13263744119855,-52.10375003177011,96.80133742169954,-0.755109429359436,-0.35697975754737854,0.5057021379470825,,,,,
0.7989910000001146,38.442778029836774,-54.09469696363633,94.05521589156238,-0.6359397172927856,-0.4685681462287903,0.5934786200523376,,,,,
0.8083090000000084,43.3156911957981,-56.02871148749211,90.58194168742129,-0.6726154685020447,-0.5783893465995789,0.4445708096027374,,,,,
0.8178230000000895,48.719177931053046,-58.034400358746566,86.36194275502206,-0.8500410318374634,-0.5673243999481201,0.47072479128837585,,,,,
0.8273060000001351,54.16376146584211,-59.96389308524022,81.74131327900245,-1.21144437789917,-0.5006119608879089,0.4474847912788391,,,,,
0.8368450000000394,59.40137082110381,-61.706584493048474,76.91014605545942,-1.6547465324401855,-0.31125572323799133,0.4263583719730377,,,,,
0.8464110000002165,64.35060570486327,-63.178816731684684,71.78463449886151,-1.992386817932129,-0.03696480393409729,0.40229207277297974,,,,,
0.8559170000000904,68.68003158387735,-64.24987055743333,66.45515693334085,-2.2039260864257812,0.20757997035980225,0.3705630302429199,,,,,
0.8654430000001412,72.53275616082968,-64.86657847058923,60.86974421520061,-2.1997714042663574,0.3398163616657257,0.16013900935649872,,,,,
0.8748590000000149,76.24086981612069,-65.05652171018038,54.90312652137775,-2.0874719619750977,0.9539976119995117,0.9604668617248535,,,,,
0.8843679999999949,78.53439022336654,-64.81956120105741,48.44912325209969,-1.881002426147461,0.7631844282150269,0.6474556922912598,,,,,
0.8939090000001215,80.5643604242949,-64.32490826815004,41.401503407248605,-1.6240192651748657,0.20351004600524902,0.1390148550271988,,,,,
0.9034149999999954,83.6740293573561,-63.679919414177114,33.918906168303764,-1.4831714630126953,0.41446974873542786,0.6588465571403503,,,,,
0.912907000000132,86.44916079876589,-62.74152330668166,26.553292630914953,-1.497741460800171,0.5195057392120361,0.6287323236465454,,,,,
0.9224380000000565,88.50386612152242,-61.44061058919417,19.71160083850655,-1.5612783432006836,-0.04132866859436035,-0.48956429958343506,,,,,
0.9319450000000415,91.40820632345681,-59.83828350577997,13.600632908447432,-1.6314876079559326,0.2528666853904724,-0.1766582429409027,,,,,
0.9414520000000266,93.6194691143642,-57.90102512746646,8.679487321533921,-1.5654329061508179,0.6224405765533447,0.0828700065612793,,,,,
0.9509570000000167,93.83327875868162,-55.77009180090611,5.245168642845966,-1.1407579183578491,-0.03864741325378418,-1.1750340461730957,,,,,
0.9606510000000981,94.19830254987201,-53.842205318432896,3.0203668750938553,-0.40544840693473816,0,-1.0320748090744019,,,,,
0.9701590000001943,94.10528959434673,-52.314232374013706,1.7976779624482468,0.5241252183914185,0.32133960723876953,-0.614011287689209,,,,,
0.9796610000000783,92.62544285509632,-51.26453738157825,1.4015002617815286,1.702765941619873,0,-1.3176462650299072,,,,,
0.9891900000000078,90.68193466483861,-50.655964021967954,1.62992378027867,2.7349953651428223,0.34923356771469116,-1.644455909729004,,,,,
0.9986840000001393,88.47612370530705,-49.883474556027835,1.2111401507437898,3.4551262855529785,0.31773680448532104,-2.060229778289795,,,,,
1.008203000000094,87.08047040703843,-48.71720106541857,-0.37915279351258996,3.1368184089660645,0.3004080057144165,-0.9120673537254333,,,,,
1.0177040000000943,85.81558276220521,-47.297621274163724,-2.2627573747186713,2.5551247596740723,0.2145335078239441,-0.38161903619766235,,,,,
1.0272150000000693,83.09103776887576,-46.27031257959268,-3.3258847256353583,1.4357435703277588,0.5874133706092834,0.6866439580917358,,,,,
1.0367270000001554,77.69695627045797,-46.195168415194615,-3.8383403186220817,0.875207781791687,0.4498525857925415,0.5337713956832886,,,,,
1.0462440000001152,70.28344204402575,-47.19145589722241,-2.869469888180223,0.5426520109176636,0.042990803718566895,0.1231406033039093,,,,,
1.0557470000001103,61.32072721592394,-48.89830723878412,0.6072188365158236,0.21625030040740967,0.5958042740821838,1.1122523546218872,,,,,
1.0652580000000853,50.07978447383248,-50.8330008165134,6.119443949308398,0.05904155969619751,0.7183125019073486,0.9041188359260559,,,,,
1.074775000000045,38.26348604882093,-52.70618199858246,12.885915341609822,-0.33282339572906494,0.3803812563419342,0.4040026366710663,,,,,
1.0840880000000652,28.054330246125943,-54.50939604088317,19.93426453597191,-1.1633039712905884,0.24583393335342407,-0.0927693247795105,,,,,
1.0937040000001161,20.92173075120529,-56.72923916237797,26.258355575313153,-2.677021026611328,0.13607658445835114,-0.786922812461853,,,,,
1.1031970000001365,18.009876739562213,-59.89296598143519,31.09882564387785,-4.470907688140869,0.13765273988246918,-0.17986765503883362,,,,,
1.1127160000000913,21.134066788187805,-63.13402633683177,33.11069235625188,-7.36223030090332,-0.389276921749115,-0.395133376121521,,,,,
1.1222220000001926,35.39361302780033,-63.32305112341231,27.05616842439111,-7.9883575439453125,0.7546548247337341,3.397505521774292,,,,,
1.1316490000001522,52.33022359696122,-58.13015413174562,16.299039914504892,-3.7315902709960938,-0.8735419511795044,2.2194950580596924,,,,,
1.1411580000001322,64.58516779269769,-50.93724523233761,12.15764089108639,0.18794411420822144,-2.1082937717437744,1.5621349811553955,,,,,
1.1508479999999963,74.04453806375349,-45.34488111105275,13.851770502496844,1.9730786085128784,-0.7443358302116394,3.361173629760742,,,,,
1.1603650000001835,81.23976269035853,-43.87024134737861,15.16374679985719,4.128373146057129,-1.6352306604385376,1.085784673690796,,,,,
1.1698690000000624,90.03485893625418,-46.903395067935456,14.454662386239782,4.412016868591309,-1.6054117679595947,0.2684634327888489,,,,,
1.1793870000001334,103.61153635749606,-52.43452321817581,9.049663119584833,2.5853731632232666,-0.34644123911857605,1.1402660608291626,,,,,
1.1887030000000323,121.96066066726605,-56.65793636412298,-3.5671036387753685,0.6998907327651978,0.36034679412841797,2.363285779953003,,,,,
1.1983060000000023,138.68767561359627,-57.07053782233367,-17.674156246986616,-1.5329899787902832,0.31802839040756226,2.093022108078003,,,,,
1.2078170000002046,148.47564253891196,-54.43905868829624,-25.473911167738663,-2.792022228240967,0,0,,,,,
1.2172360000001845,152.59554544954347,-50.41281836773591,-25.76034921481161,-2.2367329597473145,0.256625235080719,-0.49707913398742676,,,,,
1.2269220000000587,152.34061486031825,-46.48997053247519,-21.08906758046488,-0.39544057846069336,-0.16722659766674042,-0.653654158115387,,,,,
1.2364340000001448,150.16800243201394,-43.76154763634463,-14.733897840729652,1.929840087890625,-1.0777418613433838,-1.4048995971679688,,,,,
1.2459540000002107,149.1396925433522,-42.840042271059765,-9.791271466527553,4.221493721008301,-1.5633066892623901,-2.09366512298584,,,,,
1.2554570000002059,151.35740021473404,-43.920141959017,-9.010942394525555,5.653965473175049,-1.0354588031768799,-1.342684268951416,,,,,
1.2649690000000646,155.2779251177422,-46.31823296937949,-13.247071490365183,4.850676536560059,-0.5391433238983154,-0.6420196294784546,,,,,
1.2744810000001507,160.53679611260122,-48.87179697894704,-20.387912044225505,2.479410171508789,-1.1256842613220215,-2.782470703125,,,,,
1.2839810000000398,168.56734097466241,-50.467750818583156,-27.461395205697617,0.3039156198501587,-0.11891248822212219,-1.2888336181640625,,,,,
1.2933150000001206,172.50144344276427,-51.4276150174715,-30.875043614176512,-1.1133108139038086,0.9076066017150879,1.2051467895507812,,,,,
1.3028370000001814,168.6655820183937,-52.783082223712476,-28.088736313625265,-1.8144731521606445,-0.34534722566604614,-1.4779162406921387,,,,,
1.3124420000001464,161.52147255635094,-53.81660056282381,-19.311012937237354,-1.669349193572998,0.21962225437164307,0.3590431809425354,,,,,
1.321871000000101,149.59527902312766,-53.36144847877172,-6.6615446056605645,-0.8023328185081482,0.29784461855888367,1.412348985671997,,,,,
1.3313580000001366,136.33201035855072,-51.097216951158316,5.262687000519177,-0.2395944595336914,-0.7251232862472534,0.8207512497901917,,,,,
1.3408840000001874,126.3765086620887,-48.35992382668003,12.9676291798299,-0.5490610003471375,-0.5036748647689819,2.7312746047973633,,,,,
1.350458000000117,118.4670251952741,-46.83797983071999,16.109538369908787,-1.6359617710113525,-0.877554178237915,3.580979585647583,,,,,
1.359960000000001,113.03957397102425,-47.756129749289634,16.219435061625795,-3.1235296726226807,-0.5225092172622681,5.085137367248535,,,,,
1.3694890000001578,108.2643413379545,-50.938899316820354,15.436976159849804,-4.384634017944336,0.32501786947250366,5.10329008102417,,,,,
1.3789950000000317,103.46634630014242,-54.972461335785155,14.790950270914456,-4.6515631675720215,0,3.300555467605591,,,,,
1.3885040000000117,101.10116714665041,-58.30696585127784,14.410235337280179,-3.9503777027130127,0.4756010174751282,2.7234668731689453,,,,,
1.3979390000001786,100.51505477216062,-59.57107550563308,13.646923457949127,-2.385777473449707,0.6889541149139404,1.8563481569290161,,,,,
1.4076330000000326,101.40464013879134,-58.30438147019932,11.997520314290748,-0.6407380700111389,0.1267021894454956,0.46675339341163635,,,,,
1.417135000000144,104.48200820759757,-55.04484641217452,9.251954435742126,0.9684953689575195,-0.05201911926269531,0.5021853446960449,,,,,
1.426642000000129,108.33643476906512,-50.90913055646948,5.92467223624,1.6737256050109863,-0.2968287169933319,0.3676406145095825,,,,,
1.4361550000000989,112.88957174964996,-47.02987020201894,1.5282121586102646,1.8748605251312256,-0.7848503589630127,-0.21764105558395386,,,,,
1.4456590000002052,118.61883756291435,-44.26327788795391,-3.944999623700999,1.5565589666366577,-0.661428689956665,-0.06640863418579102,,,,,
1.4551890000000185,124.16872503488565,-42.92448676084546,-10.006991241120442,1.0064444541931152,-0.41150668263435364,-0.6439229249954224,,,,,
1.4646790000001602,128.85687815105254,-42.79517311179309,-16.090115796150762,0.7682486176490784,-0.26800593733787537,-2.2643959522247314,,,,,
1.47419200000013,132.61679110325917,-43.51628735769871,-21.25266861738035,0.9213172793388367,0.14624041318893433,-3.0227224826812744,,,,,
1.4837060000002111,133.99716150696253,-44.89123885028755,-24.08482654135967,1.3235315084457397,0.3698804974555969,-2.6676645278930664,,,,,
1.493221000000176,132.10998944764108,-46.65350725866049,-23.569548456702854,2.19973087310791,0.41258394718170166,-2.070456027984619,,,,,
1.5027410000000145,127.05791475148388,-48.1079512233351,-19.81068099644928,3.018223524093628,0.12793922424316406,-1.9181445837020874,,,,,
1.5122440000000097,120.53157526637561,-48.819227106506844,-14.699255470945563,3.1109988689422607,0.04246044158935547,-1.0125352144241333,,,,,
1.5217470000000048,112.95393208279175,-49.2666317604635,-9.783746912958458,2.226498603820801,0.4859880805015564,-0.1509706974029541,,,,,
1.5312580000002072,104.3217234245289,-49.877791056804696,-5.405084497899423,0.7145816087722778,-0.37036189436912537,-0.8343419432640076,,,,,
1.5405980000000454,98.30395416812297,-51.02122722867998,-2.207923468966017,-0.9614879488945007,-0.3706304430961609,1.1321983337402344,,,,,
1.5501070000000254,93.75563723398098,-52.77458701781011,0.4789550987827967,-3.400383234024048,0.13910150527954102,3.1938679218292236,,,,,
1.559697000000142,90.6885890827783,-54.67708284355366,2.0583167326459195,-6.581557750701904,-0.5741612911224365,3.48748517036438,,,,,
1.5692180000000917,90.5032194064658,-54.6307769045879,3.914571563931837,-7.788889408111572,-0.3420705199241638,4.1407647132873535,,,,,
1.5787250000000768,92.19477090598754,-52.323907539132385,5.2139641654773685,-3.8421149253845215,-1.4176921844482422,3.5356333255767822,,,,,
1.5881570000001375,95.2562887806554,-50.83538016892388,7.719417833478149,-1.7787927389144897,-1.4631929397583008,3.8662383556365967,,,,,
1.5976620000001276,99.9931244145227,-50.632108509448344,9.324209633789915,-0.226412832736969,-1.1134017705917358,3.002365827560425,,,,,
1.6071740000002137,107.12164788002892,-51.31326343733601,7.251242522230194,2.0716488361358643,-1.8504133224487305,1.0938588380813599,,,,,
1.616863000000194,117.39663374143998,-52.786220228214596,3.177995633632054,2.4735498428344727,-1.1991472244262695,1.4515397548675537,,,,,
1.6358900000000176,141.79257967745818,-52.09474904175046,-13.01078529075673,0.9129709601402283,-0.7957438230514526,0.9095302820205688,,,,,
1.6453089999999975,151.27748540628912,-49.10489722137222,-20.274709463736073,0.0338100790977478,-0.7262848615646362,0.1631195843219757,,,,,
1.654901000000109,157.86010697839936,-45.693861255708484,-24.337130364935042,-0.6044175028800964,-0.2962164282798767,-0.8493285179138184,,,,,
1.6644070000002102,161.43305574908263,-42.07171856429317,-25.873910330538415,0,-0.7547976970672607,-2.462998151779175,,,,,
1.6739180000001852,164.4455340374917,-39.40320029411542,-25.893086768034745,1.083256483078003,-0.9926833510398865,-3.220836639404297,,,,,
1.6834500000002208,167.90839979025088,-38.898340910304604,-25.353309540202876,1.9172571897506714,-0.6819125413894653,-2.503983736038208,,,,,
1.692935000000034,170.99156449248616,-40.3652073023248,-25.156853091132565,2.6922261714935303,-1.1482272148132324,-2.7540805339813232,,,,,
1.702446000000009,175.65063582041486,-43.02004836355179,-26.092797921845605,2.857914924621582,-0.9795803427696228,-2.1257588863372803,,,,,
1.7119570000002113,-179.02120157071764,-45.91054713768158,-27.554489562243162,2.159414768218994,-0.7150234580039978,-1.3545019626617432,,,,,
1.7214620000002014,-173.97142106010077,-48.1973444308769,-27.834514644473934,1.0390739440917969,-0.525323748588562,-1.3478580713272095,,,,,
1.73098600000003,-170.57057454887544,-49.83249990143217,-25.142733935981195,0.09020811319351196,0.3027271032333374,0.33571216464042664,,,,,
1.7403020000001561,-172.01180202816795,-51.149852413193415,-18.350914983023056,-0.661315381526947,0.4174906015396118,1.3506898880004883,,,,,
1.749900000000025,-178.25416381227168,-51.886724596397165,-7.884267045188454,-1.600431203842163,0.24590018391609192,1.6281719207763672,,,,,
1.7594080000001213,172.27529958291842,-51.29061070553246,4.322791053679101,-3.118471622467041,0.3351837396621704,3.6481447219848633,,,,,
1.7689200000002074,161.17132451401588,-48.58567425510815,14.879043838104806,-4.999307632446289,0.17706537246704102,5.10955286026001,,,,,
1.7784280000000763,152.05887244773146,-45.70959927320741,18.26851462681589,-4.6964898109436035,-0.11285272240638733,6.472904682159424,,,,,
1.7879380000001674,147.07503305045682,-47.61338122596702,14.037802688640854,-4.2491302490234375,-0.26513534784317017,5.094797134399414,,,,,
1.7974500000000262,144.4216013491979,-52.61586440137819,7.67172565311004,-3.3381905555725098,2.5103111267089844,7.464081764221191,,,,,
1.806882000000087,137.89807119864994,-57.53975914828695,2.283199573407295,-1.5832905769348145,2.246891736984253,4.706903457641602,,,,,
1.8165820000001531,130.51981235410958,-60.72882409758679,-1.0373295533864944,0.4831104278564453,0.19333502650260925,1.0094149112701416,,,,,
1.8260800000000472,123.9047676918526,-61.365244166174655,-1.6096790716999547,1.2680432796478271,1.4474395513534546,2.546044111251831,,,,,
1.8355980000001182,115.53822032105558,-57.7240890420949,-2.291759934152402,1.2231810092926025,0.8351154327392578,0,,,,,
1.845118000000184,110.2465406344105,-50.84189988771078,-5.7216046240887435,1.2128188610076904,0.24827128648757935,-0.1685800552368164,,,,,
1.8546320000000378,107.07644402311429,-43.03686126262474,-10.168246096968744,0.560196042060852,0.5274238586425781,0.27277904748916626,,,,,
1.8641340000001492,103.65892310674042,-35.94853832727639,-15.546531978707254,0,-0.054177045822143555,-0.9585986137390137,,,,,
1.873658000000205,99.3404983595107,-31.03829908366346,-21.054835334457007,0,0.028089284896850586,-0.3537655472755432,,,,,
1.883149000000003,91.36735026423113,-28.99061579279319,-25.113072284008968,0.027194499969482422,1.1491241455078125,1.4708491563796997,,,,,
1.9021720000000641,56.983041167424,-30.936424067354203,-25.543432238111773,2.901829481124878,3.664506196975708,6.765026569366455,,,,,
1.9116840000001503,33.21818796400973,-32.36452278721315,-21.524530274925755,4.894076347351074,5.025991916656494,7.284039497375488,,,,,
1.9211850000001505,9.297104662605793,-33.23727765841162,-17.582142972825164,5.6093549728393555,6.168014049530029,6.898090839385986,,,,,
1.93071000000009,-12.984732255265563,-35.049529585661475,-16.53385744955474,4.233584880828857,3.004239797592163,5.125382423400879,,,,,
1.9402140000001964,-32.8581774578844,-40.451183248415745,-17.02105743311889,1.1050822734832764,3.562347650527954,6.403223514556885,,,,,
1.9495350000001963,-55.15167711713336,-49.304098292149796,-14.428229243988012,-2.503624439239502,4.4939703941345215,5.606729030609131,,,,,
1.9591270000000804,-84.73402655187553,-58.008307485884515,-3.248711331331096,-6.4417924880981445,1.7010133266448975,2.0739541053771973,,,,,
1.9686410000001615,-118.22692524388962,-58.220066540726954,15.162337630846578,-8.417219161987305,3.1957478523254395,5.20291805267334,,,,,
1.9781480000001466,-132.231807949081,-47.04465605394304,10.972075460216258,-5.2647552490234375,4.83971643447876,4.305422306060791,,,,,
1.9876670000001013,-132.72756270386543,-38.219954816460024,-9.645547174718923,-1.824486494064331,8.460053443908691,8.149027824401855,,,,,
1.9971740000000864,-138.72882191383553,-41.012403709924016,-32.18095898396475,-1.6202646493911743,7.193827152252197,7.292752265930176,,,,,
2.0066820000001826,-148.2157685904665,-48.94417873374971,-45.08843536192485,-3.106581211090088,4.2386932373046875,7.2885284423828125,,,,,
2.0161050000001524,-169.48092436083215,-59.17905644554918,-40.93555830048758,2.290067672729492,7.381568431854248,8.492228507995605,,,,,
2.0256140000001324,144.35316086035033,-64.08468550679642,-13.446143454622595,2.4838380813598633,4.653380393981934,3.301126003265381,,,,,
2.0448160000000826,93.26374388869341,-37.905435383192355,-3.7756969611923314,2.305880308151245,3.686833620071411,4.952839374542236,,,,,
2.0543320000001586,79.17248456367001,-27.179420480156114,-14.573483310906287,1.1309092044830322,-0.2978515625,1.5632404088974,,,,,
2.063670000000002,69.32702668323425,-23.82925915799987,-26.78900423312476,-0.7628980875015259,-0.3607141673564911,5.964277744293213,,,,,
2.0733500000001186,56.11268230720185,-27.212943213714613,-36.13548460998274,-2.3771116733551025,2.395632028579712,7.494114398956299,,,,,
2.0828760000001694,35.33889254072229,-33.00879739660056,-37.610015334601414,-2.168462038040161,3.9183666706085205,7.307620525360107,,,,,
2.092394000000013,9.278622923425619,-35.92682739111967,-30.102273785741158,0.302951455116272,4.174960136413574,7.192324161529541,,,,,
2.1018880000001445,-18.338581719523333,-32.28742080911852,-19.641001623561277,3.7337749004364014,4.257305145263672,7.189021110534668,,,,,
2.1113980000000083,-40.33386865190883,-23.629809814495168,-15.046778506384097,6.626416206359863,3.6690144538879395,7.233219623565674,,,,,
2.1207190000000082,-56.143863691387814,-16.605454275420485,-18.89177004207991,4.54022216796875,3.876009464263916,4.643893241882324,,,,,
2.130239000000074,-70.95720804180272,-20.744981602974402,-25.347034837013094,1.706708550453186,5.2376389503479,2.734210968017578,,,,,
2.1398390000001655,-88.74445322535963,-35.449305788144976,-26.476536518778914,0.5278640389442444,4.873913288116455,-0.14385123550891876,,,,,
2.149261000000024,-109.49199101906862,-52.80307544821074,-16.141802568082536,-0.6032249927520752,1.4019581079483032,-2.34796404838562,,,,,
2.1588630000001103,-136.5520714558121,-63.23457637229498,9.957872214259613,-2.605511426925659,0.0767127126455307,0.5871172547340393,,,,,
2.1683600000001206,-158.55034936046115,-62.255483289725376,30.904163317117664,-6.280613422393799,0.47953903675079346,3.4567999839782715,,,,,
2.1778620000000046,-165.64442393824527,-60.71561019386186,32.56410426929712,-6.150649070739746,0.471208393573761,1.894778847694397,,,,,
2.187365,-164.19662319381524,-61.521422250534584,22.61716772321527,-5.248793601989746,3.870814323425293,5.166593551635742,,,,,
2.1968870000000607,-160.41855115801266,-61.77840753394166,5.47636012564788,-2.515197992324829,3.3036556243896484,4.620236873626709,,,,,
2.206388000000061,-159.7862545480501,-60.87811309540968,-9.989348927437064,-1.2808187007904053,3.170830011367798,5.762674331665039,,,,,
2.215846000000056,-164.05310250165167,-61.745709042965636,-20.534363416058138,-1.1819555759429932,4.187228202819824,7.960641384124756,,,,,
2.225345000000061,-177.9841698282009,-63.18267960497649,-23.107629694961776,-1.0176386833190918,3.3161048889160156,4.4685564041137695,,,,,
2.2348550000001524,161.28729988946236,-62.15605362795296,-18.25706390904084,-0.19663888216018677,2.0029280185699463,2.8834052085876465,,,,,
2.2443590000000313,141.03888314456398,-58.26643864557633,-11.888210817105966,0.09283053874969482,1.7662540674209595,3.2288670539855957,,,,,
2.253879000000097,124.65584921854227,-52.046482581306314,-9.442735330468802,0.08779275417327881,1.4541293382644653,1.889481544494629,,,,,
2.2635640000000876,112.35722302477824,-45.34924606924279,-11.918106333194551,0.2594127058982849,0.7209944128990173,1.2271349430084229,,,,,
2.2730890000000272,101.87115410850042,-40.369788779064194,-16.555533410322838,0.3556211590766907,0.8509994745254517,2.3321945667266846,,,,,
2.2825910000001386,89.72820714128824,-37.884738845805735,-21.11175864404738,0.1496937870979309,1.9948406219482422,3.9918951988220215,,,,,
2.2921029999999973,73.14511511496252,-37.340881492354654,-24.19366273782149,0.19870126247406006,3.1869733333587646,6.157835483551025,,,,,
2.3016180000001896,52.138061924523264,-37.361719560065566,-24.681760194634812,0.9528598189353943,4.313120365142822,7.4907612800598145,,,,,
2.3111210000001847,29.58876367768265,-36.8956429315468,-23.408980060830302,2.0327084064483643,4.957513809204102,7.296268939971924,,,,,
2.3206420000001344,7.122472175204596,-36.69034234009433,-22.254820387017837,3.4234530925750732,4.769763469696045,7.195820331573486,,,,,
2.3301320000000487,-14.902277336607078,-37.23936461093089,-21.835462977531225,4.190488338470459,4.407050609588623,7.192951202392578,,,,,
2.3396390000000338,-36.274238487523135,-39.25087258360853,-22.486603480412096,2.4190187454223633,4.199362277984619,6.1709747314453125,,,,,
2.3489770000001045,-57.76153007484349,-44.53632841443485,-22.398469979697463,-0.23805370926856995,4.2029876708984375,4.930647850036621,,,,,
2.358569000000216,-80.25619979263874,-52.275167705527736,-19.053869771155604,-2.593534231185913,3.5325450897216797,3.710706949234009,,,,,
2.368074000000206,-105.73782271899238,-59.808554679168076,-9.53315026903119,-5.298058986663818,2.4051175117492676,2.7812111377716064,,,,,
2.3775900000000547,-133.73608934935748,-60.75477233544158,4.373526502311019,-6.417186737060547,2.9802803993225098,6.27047872543335,,,,,
2.387104000000136,-148.94322299222756,-56.88646106613702,0.5423521152943315,-6.930712699890137,5.236238956451416,7.464249610900879,,,,,
2.396597000000156,-152.71021166112072,-59.57371173075052,-16.42057438334664,-4.71063232421875,5.416965961456299,8.075550079345703,,,,,
2.4155520000001616,-172.2344529824745,-70.27029881898058,-37.43834382485402,-0.8420586585998535,4.45341682434082,8.260624885559082,,,,,
2.4250580000000355,154.3600146900737,-75.05198502396865,-22.285370395604456,0.95719313621521,2.858834981918335,5.776431560516357,,,,,
2.4345720000001165,114.67586959272063,-71.52576641014116,0.1694302030607641,1.287714958190918,3.453202486038208,4.120551586151123,,,,,
2.444266000000198,95.64610153072152,-61.85560511386123,0.5155263822048756,1.393289566040039,2.0735483169555664,2.1127874851226807,,,,,
2.4537820000000465,86.99441260784745,-51.83545661657986,-7.700542225450033,0.3599300980567932,0.4180554151535034,1.7877877950668335,,,,,
2.4630980000001728,82.29297429793253,-44.27598997561783,-17.543132136795947,-1.1183278560638428,0.050414443016052246,2.7260589599609375,,,,,
2.4726180000000113,76.41964769296543,-40.682075126072,-26.5701471005031,-2.2393181324005127,-0.3049030303955078,3.4404330253601074,,,,,
2.4821300000000974,66.33254979704724,-41.16448597980793,-31.58197074757154,-2.1566269397735596,0.31961482763290405,4.499930381774902,,,,,
2.491822000000184,49.640107245666805,-43.4948747557445,-29.779121701386792,-0.898651123046875,2.0551013946533203,6.094934463500977,,,,,
2.501321000000189,26.813949714612463,-44.147899924978844,-21.882177591911056,1.223236322402954,2.6966872215270996,6.807143211364746,,,,,
2.510829000000058,4.390376995875086,-40.9446601546451,-13.239283930382113,3.7557055950164795,2.3628647327423096,7.146279335021973,,,,,
2.520332000000053,-12.77670981771631,-35.11837417349619,-9.5081552228293,5.28424072265625,2.4839069843292236,6.18166971206665,,,,,
2.52986100000021,-26.637852443520437,-31.218411369953056,-12.05635299246618,4.430173397064209,3.426152467727661,3.905050754547119,,,,,
2.539365000000089,-39.81121507385655,-34.71833754524409,-18.012447748243098,3.37286376953125,1.6869988441467285,0.34198111295700073,,,,,
2.5486990000001697,-48.60401385186866,-44.33284259939872,-23.762365165221862,1.8082292079925537,2.4490349292755127,2.2919235229492188,,,,,
2.5582010000000537,-57.853225859801874,-56.82869321975143,-26.05679885233259,0.23685038089752197,1.4912562370300293,0.12498354911804199,,,,,
2.56771300000014,-72.52832754874184,-68.33361461140775,-18.357093537489618,-1.056531310081482,-1.0605709552764893,-0.6856215596199036,,,,,
2.5772410000001855,-97.01722822115408,-73.61110734514041,3.481943750918187,-2.602799892425537,-0.6006584763526917,2.350435495376587,,,,,
2.5868290000000798,-117.28946258469439,-70.86032724312103,18.76211622918916,-5.614713191986084,0,0.657815158367157,,,,,
2.596320000000105,-123.91857568928184,-64.84341969935724,17.62879311752893,-6.747759819030762,3.0134711265563965,3.3289854526519775,,,,,
2.60583100000008,-129.87886659872856,-61.22218552593125,9.610528562941383,-5.274104118347168,5.404904365539551,4.422508239746094,,,,,
2.6153430000001663,-140.65701464432482,-61.62848595252259,1.335325881061421,-4.596739292144775,4.321404457092285,4.2490620613098145,,,,,
2.624858000000131,-154.20461960048928,-64.53060168637671,-3.3812830643366723,-3.9623591899871826,4.111490726470947,7.403168678283691,,,,,
2.6342870000000858,-175.3118761133901,-66.48144359870408,-1.6039538138952043,-1.8251426219940186,4.9052557945251465,8.191662788391113,,,,,
2.643794000000071,159.3696674217352,-65.80569765689106,2.4297953069662275,1.1452085971832275,2.8045296669006348,5.579257011413574,,,,,
2.653310000000147,139.30236411614837,-64.05042544282334,3.2328330549561772,3.018460273742676,1.8327746391296387,5.111358165740967,,,,,
2.662819000000127,124.27801497134406,-61.76051083732272,-0.11577448118320265,2.169262647628784,2.696432113647461,5.102295875549316,,,,,
2.672333000000208,111.51759785196666,-58.61648083920246,-6.865719160994075,0.9070299863815308,1.726538062095642,3.617647409439087,,,,,
2.681840000000193,100.12893045331393,-55.20768868888032,-13.313815776002302,-0.8706949949264526,1.6335835456848145,4.2101545333862305,,,,,
2.6913540000000467,87.92647288364333,-51.398705067003156,-18.311573025018784,-2.8544235229492188,2.5197935104370117,4.2439398765563965,,,,,
2.7008670000000166,73.63182049753975,-47.09615049319739,-22.833705483727883,-3.5861597061157227,2.7682430744171143,4.678932189941406,,,,,
2.7103810000000976,56.65471181221799,-42.67526679294275,-26.140256027640586,-2.4080681800842285,3.4460582733154297,7.10734748840332,,,,,
2.720064000000093,36.32782197880254,-38.558061782718504,-27.715013660838803,-0.29118460416793823,4.558314323425293,7.361599922180176,,,,,
2.729582000000164,15.041618303023153,-36.59416240051591,-28.51885847616657,2.9663259983062744,4.066365718841553,7.216180801391602,,,,,
2.739097000000129,-7.287836687152285,-36.386668750975616,-27.553695692442425,6.731232643127441,3.773911714553833,7.192972183227539,,,,,
2.748602000000119,-29.369424656263806,-35.61179876131858,-26.986318916785127,6.172934055328369,5.658384799957275,5.480751037597656,,,,,
2.758107000000109,-48.504538962041416,-39.172372708585996,-28.046225579739726,3.511737823486328,0.744270384311676,-0.4801938533782959,,,,,
2.767434000000094,-61.61678325007201,-47.6102018056366,-26.231969110554974,0.8161032199859619,2.812223196029663,5.710538864135742,,,,,
2.776947000000064,-80.7365628954755,-57.40576265868421,-19.389085620867014,-2.055635452270508,3.3864073753356934,3.378429412841797,,,,,
2.7864660000000185,-106.29077333468089,-64.8127902540862,-5.344658762250742,-4.148932456970215,-1.4080103635787964,-2.207226276397705,,,,,
2.796052000000145,-123.06110574486505,-64.48161929509078,6.757283494933092,-6.050386428833008,0.7899208664894104,3.3839542865753174,,,,,
2.805564000000004,-129.7006802982969,-59.90818230684977,6.244532758358441,-6.703885078430176,3.2689919471740723,3.3049654960632324,,,,,
2.8150600000001305,-136.92416859340545,-60.56253089148423,1.0510236248433773,-5.449300765991211,5.767321586608887,5.8646063804626465,,,,,
2.824555000000146,-151.17020225465114,-65.86757753507342,-1.9622845284412302,-6.286253452301025,4.691283702850342,5.7261481285095215,,,,,
2.8340830000001915,-172.9680109742341,-67.96869599264942,2.9706290215035045,-4.254217624664307,3.7769665718078613,8.049181938171387,,,,,
2.843512000000146,158.7605051435849,-69.68962532130888,13.109494493166464,-1.9590330123901367,4.534348011016846,8.272750854492188,,,,,
2.853020000000015,130.94692564761033,-68.21723291336308,20.112089820100778,-1.0147861242294312,2.3217973709106445,5.11920166015625,,,,,
2.862543000000187,118.48404123024754,-64.32626793498488,13.634155358131755,2.356342077255249,1.1982316970825195,4.483070373535156,,,,,
2.872048000000177,107.39459690724767,-62.37884691100048,7.179786666273989,2.2776622772216797,2.2288150787353516,6.27638053894043,,,,,
2.8817410000001473,97.23293675672406,-61.4219754868977,-0.9768445446801649,0.11027681827545166,1.2797826528549194,2.3615267276763916,,,,,
2.891067000000021,91.17655911528016,-60.13691074832748,-11.552395482129707,-1.3527661561965942,1.4961432218551636,4.227621555328369,,,,,
2.900587000000087,81.02117032630213,-57.693869740102876,-17.174764859129446,-2.7842366695404053,2.7608189582824707,4.688351631164551,,,,,
2.910098000000062,66.46300962131252,-53.54440274033753,-19.714081375388613,-4.227312088012695,2.8165535926818848,3.7801270484924316,,,,,
2.919610000000148,51.352144301887634,-48.44583442561269,-23.034051042710207,-2.57184100151062,3.5674257278442383,7.139771938323975,,,,,
2.929300000000012,32.68361105633573,-42.710879148223576,-25.442567048565575,0.3552625775337219,4.576782703399658,7.373223304748535,,,,,
2.9388000000001284,12.40137211459574,-39.12352520916594,-27.705202199386438,3.5145957469940186,3.543302059173584,7.233922958374023,,,,,
2.9483020000000124,-8.347618614851061,-38.91751202258329,-28.564596429171953,6.968772888183594,3.6805579662323,7.190785884857178,,,,,
2.957837000000154,-29.01089533512313,-39.46543391310087,-29.3353530510865,6.0053606033325195,4.922022342681885,4.029216766357422,,,,,
2.967341000000033,-46.303456344877624,-44.94008733527189,-30.255948520375224,3.7934274673461914,0.84311842918396,-0.7160236835479736,,,,,
2.976667000000134,-58.90902161343663,-54.561048074737805,-26.463778883899188,1.2815401554107666,1.4499800205230713,4.543984413146973,,,,,
2.986176999999998,-78.12730444446638,-63.63584766077011,-15.19899221350751,-1.6763222217559814,2.0695762634277344,4.230136871337891,,,,,
2.9957710000001043,-104.55555047195772,-68.60667710063538,2.83981618400101,-4.832961559295654,-1.4844162464141846,-0.9134766459465027,,,,,
3.0052700000001096,-118.8771520235119,-66.88622339623224,13.738204148136298,-8.472549438476562,0.6276249885559082,2.177138090133667,,,,,
3.0147880000001805,-126.85147522890996,-63.873232948555895,15.602534627790469,-7.632976055145264,3.2413597106933594,2.6311211585998535,,,,,
3.024287000000186,-139.00785238753062,-64.95877125267948,16.46982088290193,-4.912026882171631,3.9427521228790283,3.377601146697998,,,,,
3.033818999999994,-159.10262647995899,-68.76284271252746,21.708671273746244,-5.398813247680664,4.629435062408447,6.222296714782715,,,,,
3.0433100000000195,173.23135056510344,-69.3491287263112,30.908714080805545,-4.061207294464111,4.206442832946777,7.715543270111084,,,,,
3.052744000000075,153.13360016325453,-68.59670899380045,31.332893937992946,-2.3960702419281006,2.9462668895721436,8.041608810424805,,,,,
3.062261000000035,134.4514450210132,-69.40792533596087,29.547173100885573,-0.9137251377105713,3.444903612136841,7.8889546394348145,,,,,
3.0717540000000554,122.41529803152072,-69.7664012203341,20.40008486393538,0.88163822889328,2.172173023223877,5.06392765045166,,,,,
3.0812670000000253,112.60489468552373,-70.89821778455992,11.290234101586462,2.9567902088165283,2.3194684982299805,6.034752368927002,,,,,
3.0907840000002125,97.81478705296755,-72.21835121989982,7.97145366008722,0.7039619088172913,2.7718722820281982,4.44709587097168,,,,,
3.1002860000000965,87.12865775298131,-71.30976076043706,0.14573598212763972,-0.683334231376648,2.742295980453491,3.41121768951416,,,,,
3.109814000000142,76.35906796024075,-67.59829636083236,-7.08386841552369,-1.3154747486114502,2.907043695449829,4.062935829162598,,,,,
3.1193140000000312,63.88663335324369,-61.39276280346806,-12.206292246808825,-2.738910675048828,3.0833797454833984,3.3282103538513184,,,,,
3.128825000000006,52.82067921334398,-54.86430242432204,-20.210317400327664,-2.5828206539154053,3.414236068725586,5.619742393493652,,,,,
3.1385320000001684,39.07997265422056,-49.575555171806954,-28.13872794824684,-0.43539220094680786,3.639749050140381,7.440780162811279,,,,,
3.1480220000000827,21.198432232227344,-46.73413489236235,-33.19622016072274,2.071153163909912,3.3979501724243164,7.352941036224365,,,,,
3.1575440000001436,0.37613356720204394,-47.67214995984491,-34.06204748872838,5.2454376220703125,2.7269139289855957,6.888862133026123,,,,,
3.1670540000000074,-22.546960906250856,-48.93527711494451,-30.236594554463345,6.924361228942871,4.351842403411865,6.086540699005127,,,,,
3.1765670000002046,-44.751049014169375,-50.18090464411805,-26.718065159567576,4.486591815948486,2.7169406414031982,1.6341736316680908,,,,,
3.1860700000002,-62.561173782526446,-54.88208296247448,-21.541861435989595,1.7587368488311768,0.6774786114692688,1.5768837928771973,,,,,
3.1953980000000684,-82.0767418284411,-61.3114998012878,-10.872413934048454,-1.170285701751709,3.759793758392334,6.548783779144287,,,,,
3.2049940000001698,-110.94015961936462,-67.08946483426818,5.697321931643324,-4.442569732666016,1.4369783401489258,-0.1140412986278534,,,,,
3.2145030000001498,-140.19789749579036,-68.16389089032954,27.017283857209755,-6.793823719024658,0.3071463704109192,1.3268367052078247,,,,,
3.2240180000001146,-149.15738514700382,-64.20356255982179,28.796437934396106,-7.742374420166016,2.622267961502075,2.7862768173217773,,,,,
3.2335320000001957,-149.22455808612767,-61.99853364769627,18.801701538391754,-5.7475690841674805,6.27364444732666,5.6627197265625,,,,,
3.2430229999999938,-156.39568005510776,-66.87193438770431,9.207421499477157,-5.277515411376953,5.279909133911133,5.176900386810303,,,,,
3.2525480000001608,-176.12084057602542,-72.48591335243911,12.385800550446929,-5.52579927444458,3.60490345954895,7.054218292236328,,,,,
3.2619650000001457,148.84699920284655,-72.8302593439886,30.545285668481785,-1.710944652557373,5.045790195465088,8.211688041687012,,,,,
3.2714800000001105,116.0815951948991,-68.7760183690177,42.59544636339205,0.889471173286438,3.0861330032348633,5.320453643798828,,,,,
3.281170000000202,100.05131884956373,-64.06785760983476,38.758934935018296,2.2504594326019287,0.9241204261779785,2.9430649280548096,,,,,
3.290672000000086,93.61495391817735,-61.49249969034694,27.2421961449768,2.893972158432007,2.0216667652130127,6.1886701583862305,,,,,
3.300190000000157,86.3329572583798,-61.081417927796394,15.280127166417747,1.0349711179733276,1.5501720905303955,4.636303901672363,,,,,
3.3095150000001468,79.49617284688135,-61.91544886027785,4.329503216959125,-1.3138946294784546,0.9500248432159424,3.8069002628326416,,,,,
3.3190360000000965,71.66948221190471,-62.55397625494256,-3.8065434198737096,-3.2654800415039062,2.686663866043091,5.565756797790527,,,,,
3.3285540000001674,57.60684968462037,-61.32497318411372,-7.44976870235561,-4.19843864440918,3.3461132049560547,4.578327655792236,,,,,
3.3380500000000666,40.32683321757618,-57.73162058232069,-8.735992833816308,-2.8804805278778076,3.161682605743408,6.045215129852295,,,,,
3.347748000000138,22.219791075217795,-52.33290797077344,-9.893164297590161,-0.25321465730667114,4.220251083374023,7.420421600341797,,,,,
3.3572680000002038,2.8986582230361337,-47.7811907021299,-12.445810179995895,3.3026485443115234,4.099124431610107,7.32080602645874,,,,,
3.3667700000000877,-16.60791576090049,-45.53662481724744,-15.284759991538312,6.774355888366699,4.182113170623779,7.21107816696167,,,,,
3.3762880000001587,-35.08725961159134,-45.50230400037786,-19.46448786936383,6.082792282104492,4.208852767944336,3.2961337566375732,,,,,
3.3857960000000276,-50.43317177365102,-51.70350199386764,-22.780960252267704,3.6319329738616943,1.3775479793548584,-0.4875730872154236,,,,,
3.3953030000000126,-64.16722622819896,-62.20291813771257,-19.11374874473095,1.788651704788208,1.3935154676437378,3.9162535667419434,,,,,
3.4046370000000934,-89.96456706033129,-71.04895261385182,-2.0792867286445373,-0.7089477777481079,1.6566046476364136,3.958592653274536,,,,,
3.414224000000104,-127.42247480246267,-73.48088006850955,26.360388286258196,-3.3844187259674072,-1.5885671377182007,-0.848631739616394,,,,,
3.423729000000094,-146.6629981963523,-69.731613142337,40.72700431640063,-5.714691162109375,-0.031291574239730835,2.97796893119812,,,,,
3.433243000000175,-150.59375278138072,-65.32072412336076,38.05808741594352,-6.309877395629883,1.3807522058486938,1.3463852405548096,,,,,
3.4427420000001803,-157.31973306121117,-63.77872117160142,35.48662792043403,-4.760855674743652,3.7269530296325684,3.5674710273742676,,,,,
3.4522510000001603,-172.2644474808518,-65.66474852889002,36.60622950883432,-5.372726917266846,3.424899101257324,2.755838394165039,,,,,
3.461770000000115,165.47016573568303,-65.69784655450333,43.802481453562685,-5.070649147033691,3.2611236572265625,5.8828606605529785,,,,,
3.471200000000181,142.63256487673956,-63.29905254562774,49.57525629176644,-3.691329002380371,3.380730390548706,7.687171936035156,,,,,
3.4807080000000497,122.37440998646443,-60.951825039756386,50.16738594705664,-2.260615587234497,2.1995372772216797,6.498918056488037,,,,,
3.490216000000146,107.47101402623682,-60.03650147568606,45.250944752114854,-0.3417307734489441,1.5780361890792847,5.913734436035156,,,,,
3.4997260000000097,95.37174885888861,-61.59144578680172,38.34129505634227,1.507960557937622,1.9770270586013794,5.605255126953125,,,,,
3.509414000000106,80.86540780657913,-64.87841075252328,34.47713225411742,1.7627005577087402,2.058664560317993,4.645912170410156,,,,,
3.5189280000001872,65.48649271966424,-67.9435257187041,32.748756668112456,0.7520954012870789,2.1029162406921387,3.4341938495635986,,,,,
3.528256000000056,51.02341849983823,-68.90840708922633,30.71017093655531,-0.27841562032699585,2.9857888221740723,4.067490577697754,,,,,
3.5377770000000055,38.524996371639446,-66.70046054564261,25.910910855408492,-1.449438452720642,3.1320252418518066,3.0295491218566895,,,,,
3.5472819999999956,30.623942985116592,-62.61812000657552,16.218762630814915,-2.0296480655670166,2.9757790565490723,3.3335037231445312,,,,,
3.5568080000000464,24.519293795131453,-58.50691493593519,4.026773793177635,-1.1376672983169556,3.17429780960083,5.061455726623535,,,,,
3.566489000000047,15.782834744935045,-55.91746176159183,-7.115943415717348,0.6443639993667603,2.7507710456848145,5.289830207824707,,,,,
3.575988000000052,3.4425227660622486,-56.31554362915046,-14.322684803266927,2.8577141761779785,1.8945574760437012,4.348513603210449,,,,,
3.585510999999997,-12.830321832739582,-58.669370076623245,-14.734241081885042,4.662197113037109,1.729177713394165,3.4820339679718018,,,,,
3.595015000000103,-33.205542064562856,-60.20821236565153,-8.502882148625059,4.258370399475098,1.7759408950805664,2.014559268951416,,,,,
3.604535000000169,-54.25133079810476,-60.41558244155818,1.1138745964040264,2.3846077919006348,1.0105581283569336,0.6329282522201538,,,,,
3.6138720000001285,-73.16816162723715,-60.0673550616456,11.583804794490321,-0.12581610679626465,1.6906943321228027,1.1365537643432617,,,,,
3.623450000000048,-90.62922217183215,-60.19344892427487,21.195745110875368,-2.6903774738311768,1.7009456157684326,-0.4087359309196472,,,,,
3.632965000000013,-106.39830026647205,-61.385657487621,31.041930014138355,-4.684995174407959,1.024463415145874,-2.3289244174957275,,,,,
3.642476000000215,-120.28179355175814,-62.771413539007575,42.490065034743296,-5.820928573608398,1.9799396991729736,-1.552333950996399,,,,,
3.651978000000099,-128.97211468912403,-63.23585289631968,49.35454570958149,-5.457636833190918,1.3054780960083008,-2.831273317337036,,,,,
3.661495000000059,-130.12694759969344,-62.85090816641264,50.116550893000266,-4.455163955688477,0.6950609683990479,-2.789454698562622,,,,,
3.6709990000001653,-127.98782965804513,-63.09206613109765,48.53833443731086,-3.2831945419311523,1.451863408088684,-0.952948808670044,,,,,
3.680511000000024,-126.7148931114175,-64.46299174163079,45.863437024037985,-2.771618366241455,1.2071112394332886,-1.3551748991012573,,,,,
3.6899450000000797,-126.63032624723236,-65.73238980363381,43.742946653548955,-1.752009630203247,0.3782356381416321,-1.762063980102539,,,,,
3.69945000000007,-124.72264574988009,-66.38788521961445,41.06128204515278,-1.1044450998306274,0.5785775780677795,-0.911666750907898,,,,,
3.7089850000002116,-121.01104963652536,-66.3923579829451,36.53597790907873,-0.9531962871551514,0.6957536935806274,-0.8466809988021851,,,,,
3.71846400000004,-116.32907866124171,-65.50475930228282,31.017577361635897,-0.8280476927757263,0.47432950139045715,-1.2311577796936035,,,,,
3.7279920000000857,-110.58890688747177,-63.943233888593674,25.348153654090805,-0.8146904110908508,0.8554390668869019,-0.4340475797653198,,,,,
3.737494000000197,-105.03242772702392,-62.36759966273005,19.532701562577376,-0.493110716342926,0.9135714769363403,-0.1460954248905182,,,,,
3.747198000000026,-99.88271283731545,-61.25179137468734,14.220603165086034,0.09291505813598633,0.9423118829727173,0.4127216935157776,,,,,
3.756506000000172,-95.7167866802285,-60.858800168806965,9.66925170072276,1.2857383489608765,1.294724464416504,2.1575942039489746,,,,,
3.7661960000000363,-93.11978315233003,-61.24792536368717,5.1715958301833025,2.4858555793762207,1.431043267250061,2.8844306468963623,,,,,
3.775722000000087,-92.45871619879586,-62.17188807179143,1.0168618222756807,3.171896457672119,1.3789879083633423,2.242676019668579,,,,,
3.7852300000001833,-94.43999476955811,-63.23967907204398,-1.2766067557987235,3.431009531021118,1.039772391319275,2.6090331077575684,,,,,
3.7947300000000723,-97.78149544241576,-64.0230715323926,-1.8699548807160362,3.4810500144958496,1.0088465213775635,2.3273651599884033,,,,,
3.804252000000133,-101.90483601190456,-64.26822847824344,-1.747383826982494,2.3528778553009033,1.2170190811157227,1.9177554845809937,,,,,
3.8137570000001233,-107.84228605679384,-63.89983547210417,-0.04633910882533429,1.495103120803833,0.7029670476913452,-0.08783799409866333,,,,,
3.8232620000001134,-112.56046609102488,-63.266306891685176,1.9178023411722829,0.5494040250778198,0.7626075744628906,0.41970372200012207,,,,,
3.832601000000068,-116.02083841938416,-63.02415108164588,3.501756873762433,-0.2348526120185852,1.3228808641433716,0.4830569922924042,,,,,
3.842112000000043,-119.60822876050167,-63.77218184399158,4.973913382902801,-0.8482651710510254,1.0381070375442505,-0.12463457882404327,,,,,
3.851623000000018,-123.6700724835603,-65.24685622227575,7.914164800977851,-1.1599617004394531,0.8397386074066162,-0.304867684841156,,,,,
3.861126000000013,-128.94529122800907,-66.99896245094041,13.303525625239637,-1.0601131916046143,1.0710527896881104,-0.7553894519805908,,,,,
3.8706430000002,-136.25689731515703,-68.66341188783497,20.698316187717975,-1.126962661743164,0.7459601163864136,-1.9733288288116455,,,,,
3.8801420000002054,-144.43529077240328,-69.42819980934968,29.503999642256552,-1.4823694229125977,0.2912842333316803,-3.734248399734497,,,,,
3.88966100000016,-150.88879406632793,-68.79409142037457,37.697811965840565,-2.0979347229003906,0.32938551902770996,-3.66910982131958,,,,,
3.899171000000024,-154.2727600032908,-67.27649288080133,42.95957268031641,-2.926156997680664,0.21034358441829681,-3.448944330215454,,,,,
3.908677000000125,-154.06496897465303,-65.6110668050071,44.76417971386966,-4.014479637145996,-0.0692141205072403,-3.7930996417999268,,,,,
3.918194000000085,-150.82266458577746,-64.62214088946382,44.2805227832695,-4.8668212890625,0.03907337784767151,-2.7161812782287598,,,,,
3.9277759999999944,-147.1125699586952,-65.09291497167925,42.86591569694177,-3.9836199283599854,0.42145758867263794,-1.8665392398834229,,,,,
3.93721400000004,-142.64517749325137,-66.4306722875222,39.578528287666785,-2.7905397415161133,-0.6311564445495605,-3.0852131843566895,,,,,
3.94671500000004,-133.1673863065456,-68.08189016934769,33.60226815514557,-1.9991774559020996,-0.12423643469810486,-1.3098361492156982,,,,,
3.956243000000086,-123.30290648865493,-69.30547878311017,27.284851866635258,-1.0321656465530396,-0.14788955450057983,-0.7985706925392151,,,,,
3.9659230000002026,-114.84791488913123,-69.95718529703385,22.37181462085611,-0.22824478149414062,-0.7854032516479492,-1.5518341064453125,,,,,
3.9754230000000916,-105.18543976748308,-70.32756959947692,17.894090167592978,-0.18237519264221191,0,0.07307347655296326,,,,,
3.9849420000000464,-97.25875636380268,-70.69072211191475,14.625862188205849,-0.5492721796035767,0.06137138605117798,0.339441180229187,,,,,
3.9944520000001376,-91.72433917302318,-71.17435535985013,12.792942281330173,-0.6698848009109497,-0.41015270352363586,-0.06125308573246002,,,,,
4.003787000000102,-85.8015728362767,-71.80522064894917,10.634603864581278,-0.5472363829612732,0.07719944417476654,1.1369941234588623,,,,,
4.013290000000097,-80.21650587328435,-72.5855048161348,6.731750750215887,0,0.32762905955314636,1.8486340045928955,,,,,
4.0229810000000725,-76.96808963492944,-73.3688441423903,1.841880325912739,1.2372560501098633,0.38172316551208496,2.31535005569458,,,,,
4.032482000000073,-76.87540606874339,-74.018109526668,-3.0892818679448935,2.3467109203338623,1.4085969924926758,4.487060070037842,,,,,
4.041836000000103,-81.91454502371148,-74.75453500352899,-7.0525749421445685,3.044503688812256,2.6421546936035156,5.897035121917725,,,,,
4.051345000000083,-91.89558964611334,-75.86937090083781,-10.41652631281059,2.9229326248168945,3.2730495929718018,6.4713826179504395,,,,,
4.0608430000002045,-107.01459302884962,-77.45997971481275,-11.144709632259277,1.9602866172790527,2.540348768234253,5.611663818359375,,,,,
4.070349000000078,-127.31727345014158,-79.10712771346144,-6.231017893112851,1.0194344520568848,2.49025297164917,6.346701622009277,,,,,
4.079868000000033,-151.82043091379458,-80.50090812582822,2.718263125100915,0.28117167949676514,2.6529037952423096,5.729860782623291,,,,,
4.089376000000129,-178.46565494732215,-81.27025020841191,13.39732067467275,-0.2257937788963318,1.8365216255187988,3.887347459793091,,,,,
4.098875000000135,159.8296070767345,-81.42122274713174,20.651962349501055,-0.32354670763015747,1.24811851978302,3.3075740337371826,,,,,
4.108387000000221,143.59825283623329,-81.90002565017178,23.962456502477867,-0.2635161876678467,1.5166674852371216,3.107858180999756,,,,,
4.117902000000186,127.34156047770993,-82.82666896438751,27.496532398903366,-0.4759957790374756,1.6382118463516235,2.3637919425964355,,,,,
4.1274130000001605,108.93753496102754,-83.4975824371367,33.12783088221245,-0.8770633935928345,1.9485265016555786,2.814831256866455,,,,,
4.136929000000009,87.51040158684049,-83.26147586430588,40.975906781933645,-1.4329077005386353,2.9300289154052734,4.779568195343018,,,,,
4.146437000000105,67.47879807092427,-81.61358799868417,44.73901797642227,-2.6034905910491943,4.217116355895996,7.32902193069458,,,,,
4.1559440000000905,52.300339663298374,-78.82109437778982,39.785440044577356,-3.8554611206054688,4.567262649536133,7.876077175140381,,,,,
4.16545700000006,38.83490264970989,-75.87815647667072,31.45446160308586,-4.371973037719727,3.6833882331848145,7.804753303527832,,,,,
4.174973000000136,24.431105818887627,-74.31873492445958,23.9166780924282,-3.6768863201141357,3.2299845218658447,7.748603343963623,,,,,
4.18447900000001,5.362162987626746,-74.63179312698864,21.816977406006355,-1.599226474761963,2.05047345161438,7.538790225982666,,,,,
4.193991000000096,-19.359536306847783,-74.87611488686332,28.87620795337124,0.08837491273880005,1.1635017395019531,5.027413368225098,,,,,
4.203493000000208,-42.72325412464774,-73.2372763828441,38.70249217203807,0.22434020042419434,1.2315449714660645,2.978865385055542,,,,,
4.2130050000000665,-58.54898532677253,-70.94537841312095,43.798911572715305,-0.8359705209732056,1.3760995864868164,1.2523874044418335,,,,,
4.222600000000057,-68.2795149973771,-70.32543566470379,44.97520227712271,-2.139486789703369,1.4345290660858154,0.4374314248561859,,,,,
4.232117000000017,-73.85204447896402,-72.50767191289995,43.87754406313327,-2.7818892002105713,1.5430951118469238,0.3307310938835144,,,,,
4.241629000000103,-74.79182512278096,-77.10819111138863,39.3620643597567,-2.4850168228149414,1.3733711242675781,0.37271609902381897,,,,,
4.251052000000072,-64.8130730837078,-82.39184581722692,24.31973197130895,-1.3248705863952637,1.248092770576477,1.0283846855163574,,,,,
4.260560000000169,-22.78438819540536,-85.23965349980838,-24.15925120254717,0.28016960620880127,1.623618721961975,2.1321351528167725,,,,,
4.270255000000134,10.551449524732474,-84.98949558734651,-68.5398668215978,1.9721938371658325,2.263082265853882,3.0935604572296143,,,,,
4.279764000000114,-1.7357809732186735,-85.45369267929324,-71.2105935738409,3.703918218612671,3.2132503986358643,6.17432165145874,,,,,
4.289275000000089,-56.826741172253676,-85.33754185896201,-34.911670530912346,4.402896881103516,4.556587219238281,7.945250988006592,,,,,
4.298610000000053,-91.39698489490172,-83.11794396844468,-22.49152491801115,3.454221487045288,5.378679275512695,7.994799613952637,,,,,
4.308123000000023,-107.65043257186572,-81.61656602070495,-28.226554425760256,1.3134335279464722,4.802679538726807,8.033889770507812,,,,,
4.31761900000015,-120.91777214456899,-82.29237087682141,-36.75702553362844,-0.5421310663223267,4.694552898406982,8.056406021118164,,,,,
4.3271380000001045,-143.77570163603585,-84.66578112869881,-35.504738531871205,-1.6053123474121094,4.211960315704346,7.602024555206299,,,,,
4.33665800000017,146.87659923070333,-85.89397446537005,11.036555767624886,-1.131278157234192,2.9539153575897217,5.235902309417725,,,,,
4.3461420000001,91.36960995254385,-84.01394198050684,47.29159335878561,-0.14555692672729492,2.41719126701355,4.976057052612305,,,,,
4.355669000000034,68.13025019075799,-81.7443503938459,53.01679649840719,0.41055452823638916,2.3846046924591064,4.586133003234863,,,,,
4.3651740000000245,51.51027474436897,-80.61024153728918,52.06208242800986,0.5028977394104004,2.1750569343566895,4.735780715942383,,,,,
4.374693000000207,33.43880650985645,-80.50681541327042,52.98922118221499,-0.3634936809539795,2.291539430618286,6.273296356201172,,,,,
4.3842030000000705,11.666443202778186,-80.82350858858491,57.52610462431137,-1.8730430603027344,2.7715206146240234,7.781156539916992,,,,,
4.393704000000071,-13.026378840765787,-80.92309472012337,64.80086930984709,-3.4114952087402344,2.2497382164001465,7.8442063331604,,,,,
4.403214000000162,-37.01113139952714,-80.54234948499911,73.08212797115064,-4.355191707611084,1.375913381576538,7.632296562194824,,,,,
4.4127300000000105,-56.351860471995856,-79.54490167469848,79.95127632033747,-4.218954563140869,0.6099109649658203,5.827394962310791,,,,,
4.422324000000117,-66.90759029539385,-78.04945128185007,82.32074756154486,-3.6273021697998047,0.05261741578578949,3.440248489379883,,,,,
4.431843000000072,-69.29111935022317,-76.81217340422405,81.56374685459282,-2.943545341491699,0.047141656279563904,1.9993640184402466,,,,,
4.441256000000067,-67.09972585585508,-76.75572066147025,80.73468381588853,-2.06003999710083,0.5070383548736572,2.098621368408203,,,,,
4.4507750000000215,-63.6570325573007,-78.46069095097025,81.10294465529363,-0.9442765116691589,0.5328067541122437,2.4294354915618896,,,,,
4.460474000000204,-59.40323715210846,-81.60371597341747,81.88482377015538,0.054670751094818115,-0.029987014830112457,1.9778021574020386,,,,,
4.469956000000138,-53.47964199879873,-85.09171611350789,81.66449706132897,0.511699914932251,-0.19991493225097656,2.2859268188476562,,,,,
4.479486000000179,-49.98672351978891,-87.2234425341739,82.21234300899566,0.34108781814575195,-0.9982962012290955,0.23106102645397186,,,,,
4.488997000000154,157.22463953270878,-86.7280681422024,-117.14694058962235,-0.08838337659835815,-0.6755292415618896,-0.6679253578186035,,,,,
4.498326000000134,176.24457013240837,-85.77552050812884,-131.90224544679242,-0.6060391068458557,-0.2783852219581604,-1.6243315935134888,,,,,
4.507841000000099,-157.6382612039486,-85.22945666997518,-155.61278144672642,-0.6636068224906921,-0.6721245646476746,-4.335700511932373,,,,,
4.517346000000089,-123.70152734929353,-84.47378499872775,172.88605164751493,-0.26836222410202026,-0.570327877998352,-5.779294967651367,,,,,
4.526849000000084,-93.03796397624433,-82.84740894557997,145.61621367473325,0.6358674168586731,-0.20399002730846405,-5.751908779144287,,,,,
4.53636900000015,-70.76150846117989,-80.50539069060378,127.73165737943944,2.4947268962860107,-0.9194405674934387,-6.060144424438477,,,,,
4.546052000000145,-57.954366465509146,-78.2303791948114,121.96695529891188,4.5070085525512695,-0.9256753921508789,-4.820165634155273,,,,,
4.55556300000012,-52.69226659983564,-77.13879451989781,126.19863205431626,4.610384941101074,-0.8908082842826843,-3.744450330734253,,,,,
4.565071000000216,-57.54005095755683,-77.58482570976821,142.366936596326,3.650003671646118,0.06252797693014145,0.11548877507448196,,,,,
4.574572000000217,-66.78318026826379,-78.35390887668432,162.5395253855805,1.31139075756073,-0.35750919580459595,1.8598558902740479,,,,,
4.583919000000151,-69.86088048391248,-79.39805464825209,179.39885293709884,-0.9415650367736816,0.325390100479126,2.1910648345947266,,,,,
4.593424000000141,-68.4579654433966,-81.34360007241048,-165.74885483037744,-2.791646957397461,2.2077324390411377,5.051431179046631,,,,,
4.60292400000003,-56.212641669547885,-84.05139640854244,-164.2993336137809,-4.007412433624268,1.2031364440917969,5.139741897583008,,,,,
4.612528999999995,1.3859140771393774,-85.21090755933592,148.9217582193297,-4.2557477951049805,0.8440079092979431,3.3650636672973633,,,,,
4.621952000000192,46.023263260575426,-82.11704871759373,113.70538163229784,-3.293790817260742,1.2654858827590942,3.069129228591919,,,,,
4.631462000000056,55.79115487879852,-77.87647494594275,107.14294549085112,-1.8810954093933105,0.10014382004737854,1.1106891632080078,,,,,
4.641066000000137,55.12332067048396,-75.45380279799383,106.14352924873941,-1.3908967971801758,-0.18947359919548035,-0.7219288945198059,,,,,
4.650490000000218,51.06936954015911,-76.44703177511127,104.90442546211612,-1.4624537229537964,1.6782535314559937,2.078613042831421,,,,,
4.659993000000213,35.250247932820365,-79.92248145938589,108.29021030656448,-1.5031898021697998,3.820258617401123,5.674188613891602,,,,,
4.669500000000198,-9.462307311614346,-82.39975886243022,134.55003274327552,-1.5052043199539185,3.639772653579712,6.302506923675537,,,,,
4.679022000000032,-60.262439272362634,-80.36062588215347,166.04123683105146,-1.383232593536377,4.416499137878418,7.862269878387451,,,,,
4.688523000000032,-84.56272205065275,-76.52488566875459,169.485409486824,-0.48774781823158264,5.973984241485596,7.970452308654785,,,,,
4.698037000000113,-96.44959641690386,-74.3810034260468,159.91060898421574,-0.0737873911857605,4.856631278991699,7.800599098205566,,,,,
4.717060000000174,-123.10684792355545,-78.53010039011507,143.9880622373392,-0.5172742605209351,4.8602070808410645,6.467986583709717,,,,,
4.726564000000053,-160.46375599140399,-83.1715635299662,160.19641885607783,-1.04817795753479,3.9848484992980957,4.139125823974609,,,,,
4.736079000000018,127.09785532247425,-82.53872612560617,-147.69225698269656,-1.1251267194747925,3.5404863357543945,4.542881488800049,,,,,
4.745581000000129,97.91951811945685,-77.95146538016635,-139.30098752953592,-0.3246498703956604,4.479166507720947,6.978503227233887,,,,,
4.755098000000089,85.66329806998145,-74.95852450059041,-149.1257526213031,0.8136566281318665,5.234182834625244,7.968149662017822,,,,,
4.764605000000074,77.70901202539943,-74.8034569303589,-163.50733030214832,2.048027276992798,5.666977405548096,7.937106609344482,,,,,
4.774296000000049,66.03500288225395,-76.74196921823476,-174.00601026739244,2.4806113243103027,6.170714855194092,7.900661468505859,,,,,
4.783621000000039,42.66380700748225,-78.99879746103028,-172.36404543074053,1.3218662738800049,5.915668487548828,7.855376243591309,,,,,
4.793129000000135,9.35042608378055,-79.68507364490577,-160.41458361629464,0.44076043367385864,4.428871154785156,7.820382595062256,,,,,
4.802647000000206,-20.002098527913102,-77.55811904273989,-152.50357024153993,0,3.4939615726470947,7.090878486633301,,,,,
4.812151000000085,-37.30370097553931,-74.67439564171524,-155.27835385943396,-0.2596190571784973,2.4904768466949463,3.4259793758392334,,,,,
4.821667000000161,-46.94047835643308,-73.08399257441528,-162.32274323002534,0.050168633460998535,2.1708738803863525,2.560314655303955,,,,,
4.831182000000126,-52.74639367515759,-72.99610849802308,-171.26480977480483,0.33853667974472046,1.9107037782669067,1.6597007513046265,,,,,
4.840884000000187,-57.6538239911816,-74.3585035425814,-179.4853817249332,0.15860658884048462,1.3554807901382446,0.8121516704559326,,,,,
4.850211000000172,-63.981000936907535,-76.77442026102504,175.64830637682388,-0.3440622091293335,1.3191300630569458,2.3867411613464355,,,,,
4.859720000000152,-73.12612480213168,-79.23883683719166,174.3081550576385,-1.242145299911499,1.179409384727478,4.2895188331604,,,,,
4.869221000000152,-84.46967821518463,-80.79280565001305,175.76913708768802,-2.546640634536743,0.6741493940353394,5.0849714279174805,,,,,
4.878734000000122,-96.37409595101141,-80.90135952712387,178.80505069544532,-3.482194423675537,0.4897136986255646,6.604898452758789,,,,,
4.888247000000092,-101.19309468985449,-79.52115685505343,175.86177175801842,-3.334134578704834,0,5.973678112030029,,,,,
4.897761000000173,-96.84327109948818,-76.95757751506082,166.34010869489722,-2.921917200088501,-0.060627564787864685,4.879605293273926,,,,,
4.907268000000158,-90.24894371140518,-73.77963857450297,158.22289447998594,-2.4201371669769287,0.3276016116142273,3.7957763671875,,,,,
4.916771000000153,-85.40412088611775,-71.2696456126581,155.19592933949372,-1.7105921506881714,0.7931039333343506,3.360147476196289,,,,,
4.926283000000012,-82.47723599158695,-70.60985134312003,155.22612702218305,-1.0565674304962158,0.7191576957702637,3.100006341934204,,,,,
4.935803000000078,-80.50640785580336,-72.07995188543129,157.31043920164186,-0.75441575050354,0.4021594822406769,2.312793493270874,,,,,
4.945314000000053,-79.68789490246263,-75.13515870027075,160.9308594957899,-0.6289352774620056,0.2263713926076889,2.6245107650756836,,,,,
4.954828000000134,-80.21542187813225,-78.66325946314653,165.1395090261641,-0.8029698729515076,-0.7323901057243347,1.1717733144760132,,,,,
4.973855000000185,-76.76797625124199,-82.68154333209309,170.92398017168446,-1.2759950160980225,-0.4944121539592743,-0.34863632917404175,,,,,
4.9833480000002055,-70.29513123595503,-82.30094075391884,168.07869114487343,-0.895950198173523,-1.0126293897628784,-2.3532490730285645,,,,,
4.99286300000017,-59.457692140854284,-80.15574946824488,162.15607892832156,-0.4090665578842163,-0.960442066192627,-3.5922412872314453,,,,,
5.00237600000014,-48.9157998732894,-77.01291033028441,159.37922449621644,0.5172889828681946,-0.216473788022995,-3.2539594173431396,,,,,
5.012061000000131,-39.249167437322036,-74.04844466448169,160.14410408657574,3.008293628692627,-0.9667060375213623,-3.8457963466644287,,,,,
5.021566000000121,-29.872677746257487,-72.03784626910229,166.32383679675323,5.526615142822266,0.11779913306236267,-0.042255938053131104,,,,,
5.030898000000207,-24.17634230706496,-72.05115486083695,179.20992974733687,5.8703389167785645,0.7596800923347473,4.003753662109375,,,,,
5.040421000000151,-24.084321199520968,-74.18234930266068,-161.02976755796175,4.180805206298828,1.336683988571167,7.1614274978637695,,,,,
5.049739000000045,-27.460238049241507,-77.31156628202949,-136.65361500450365,1.4674856662750244,2.045396089553833,7.732091903686523,,,,,
5.059257000000116,-34.96714158616742,-80.84669989186364,-107.81630795572777,-1.3990148305892944,3.718418836593628,7.866222381591797,,,,,
5.0689380000001165,-43.10153720981215,-84.24757591247226,-78.79935584734964,-3.4572973251342773,2.8297436237335205,7.25779914855957,,,,,
5.078266000000212,-11.330414312119382,-87.15696506099863,-86.98348249039438,-3.282986640930176,2.3812992572784424,5.890783309936523,,,,,
5.087770000000091,107.02799365441801,-84.45471867263429,169.77661641916862,-1.572509765625,3.0625104904174805,6.282642364501953,,,,,
5.097288000000162,109.09959754857888,-79.11417518795355,-173.3643917321243,0.7737037539482117,1.3811272382736206,4.515607833862305,,,,,
5.106986000000006,112.43376519838299,-74.95463509952646,-159.3946751628012,2.7561588287353516,-0.27193763852119446,2.25787353515625,,,,,
5.116486000000123,121.90487155925427,-74.31425807032672,-149.57570255131196,2.228423595428467,0.03995661437511444,1.807448148727417,,,,,
5.125819000000092,146.2874633345626,-76.95748016301778,-153.00639204842386,0.24739915132522583,0.5252115726470947,4.027867794036865,,,,,
5.135342000000037,-162.17824768667327,-78.15450240101187,176.71422566431332,-3.356595754623413,1.3865457773208618,7.212113380432129,,,,,
5.144909000000098,-118.8594394032124,-72.16318218449095,154.5845497357544,-7.314558029174805,3.6850476264953613,8.136146545410156,,,,,
5.154431000000159,-100.03242032767288,-64.884213747123,157.79960311599953,-7.608161449432373,5.128751277923584,8.065643310546875,,,,,
5.164123000000018,-86.5911516816134,-62.26360664447042,167.14799693714556,-5.078732967376709,5.546026229858398,7.964544773101807,,,,,
5.1735550000000785,-72.07195324986814,-65.53052955557918,175.28672973960514,-0.7057449817657471,5.433095455169678,7.865189075469971,,,,,
5.182885000000169,-49.232580722320904,-71.9232856466848,173.24714634806864,2.7317261695861816,3.3850793838500977,7.7911458015441895,,,,,
5.192752000000155,-11.484865483157794,-75.01314049452243,151.90480374658122,3.048206090927124,1.1830610036849976,6.079456806182861,,,,,
5.20227100000011,19.83256361892947,-74.27141849218432,135.08313473959822,2.287186622619629,0,2.8155593872070312,,,,,
5.211785000000191,33.6326965282545,-74.47153792391842,134.9931522951963,0.5958124399185181,-0.5497297048568726,2.514202117919922,,,,,
5.2211160000001655,28.432658314909993,-76.53258161521119,152.161127873927,-2.0037505626678467,-0.4197930693626404,1.7631711959838867,,,,,
5.2306880000001,3.936578234220868,-78.43530802913546,-173.0028632973023,-3.6413626670837402,-0.1398608684539795,1.0961432456970215,,,,,
5.240198000000191,-21.036959073500174,-76.70119383615226,-137.31029433486245,-3.7173120975494385,0.5971028804779053,1.9381781816482544,,,,,
5.249634000000015,-24.387877249367502,-73.3941410479259,-122.62262558578479,-2.8437693119049072,0.7640265226364136,3.9411957263946533,,,,,
5.259142999999995,-12.942359363236571,-72.41864404977538,-122.94236505998241,0.20953238010406494,0.4402180016040802,6.601457595825195,,,,,
5.268841000000066,9.311285681479264,-71.80331330811279,-135.80119479195307,4.570674896240234,-0.434969425201416,7.2102484703063965,,,,,
5.278343000000177,31.69931195662709,-69.22106394623407,-150.30722087699155,5.973841667175293,-0.99896240234375,5.404062271118164,,,,,
5.287863000000016,47.48185074583019,-68.39762530932208,-161.49947400451612,4.7966179847717285,0.5947536826133728,7.156275272369385,,,,,
5.297373000000107,54.45034969864511,-69.36575692268539,-169.9910253239415,2.405911684036255,-2.401198625564575,3.615570545196533,,,,,
5.306694000000107,58.876251436022926,-72.07962532051354,-173.82698769538584,-0.29447346925735474,-1.3993399143218994,3.8711774349212646,,,,,
5.316206000000193,57.61826415530784,-76.07254489700323,-173.67334591254837,-2.3612589836120605,0.43409621715545654,4.3499298095703125,,,,,
5.325803000000178,44.24974148707997,-79.54333678100696,-165.18731517256677,-2.448240280151367,-0.17911645770072937,1.0318976640701294,,,,,
5.335312000000158,20.98074530722362,-80.29134608928898,-145.22214443865576,-2.180664300918579,0.594284176826477,0.4663427472114563,,,,,
5.344741000000113,7.367203803298039,-78.64884825230844,-134.97738226861023,-1.3136118650436401,1.5400983095169067,0.6481744647026062,,,,,
5.354242999999997,6.960329782721977,-76.81925227233144,-139.9473762686599,-0.058516621589660645,1.4438755512237549,-0.8726869225502014,,,,,
5.363755000000083,14.527583069436432,-75.06741938410786,-154.40105606451536,0.5006014704704285,1.4796534776687622,-1.8419380187988281,,,,,
5.373279000000139,25.543167218223267,-73.59912864891744,-174.0017461409512,-0.06001484394073486,1.5671381950378418,-2.394803762435913,,,,,
5.382780000000139,37.337539189623605,-72.69658720979102,163.56232096983373,-1.1780871152877808,1.7275187969207764,-1.131269097328186,,,,,
5.392301000000089,45.698809703082865,-71.9804335984377,142.143650115402,-2.9564666748046875,1.5227972269058228,1.0536441802978516,,,,,
5.40179500000022,47.687201061558234,-72.35044488829202,124.74475710666144,-5.067338943481445,1.578680157661438,3.8977131843566895,,,,,
5.411317000000054,38.403613072179425,-75.95882209674294,115.43815360656342,-4.813467025756836,2.434187412261963,7.313292026519775,,,,,
5.420824000000039,-16.705276707999964,-79.47084101999373,150.5662302604757,-2.5031538009643555,5.0636067390441895,7.8166680335998535,,,,,
5.4303480000000945,-60.602914973039795,-70.81851502502634,173.4748491925437,-0.29917556047439575,5.312440395355225,7.8320536613464355,,,,,
5.439848000000211,-78.20603263034954,-60.28391404121486,169.51655155650664,-0.11598491668701172,4.990724563598633,7.891092300415039,,,,,
5.449361000000181,-88.98162276394478,-54.12867094192511,159.19854380280933,2.0047690868377686,5.126950740814209,7.676717758178711,,,,,
5.458862000000181,-96.68975759818079,-54.73370482846929,145.3954128902798,0.07736384868621826,4.479213237762451,4.722994327545166,,,,,
5.468455000000176,-109.31400741002031,-62.1128500957756,138.59541982670368,-1.8481642007827759,4.756152629852295,2.7139015197753906,,,,,
5.487399000000096,156.21247415789148,-75.84122130614494,-158.9446480126807,-2.3490545749664307,2.114125967025757,0.7473504543304443,,,,,
5.496905000000197,121.01062253881247,-67.19182415335494,-137.5810422890938,-1.059715747833252,1.163136601448059,2.835446834564209,,,,,
5.506420000000162,107.13510687871398,-60.99328311657463,-140.53661021287883,1.3851256370544434,1.3022359609603882,4.351144313812256,,,,,
5.516104000000041,95.35918029080489,-61.77620464131037,-148.98262983726443,3.7378101348876953,2.3497631549835205,6.071656227111816,,,,,
5.525617000000011,81.4830719373641,-69.17841836207053,-156.37820043328165,5.81843376159668,3.4954757690429688,7.87567663192749,,,,,
5.535138000000188,48.21221441657046,-78.57856153507558,-143.69059414972554,5.64014196395874,4.730508327484131,7.863304615020752,,,,,
5.544453000000203,-19.7683174269707,-78.24037539551348,-96.08227012480091,2.7501728534698486,5.58555269241333,7.80431604385376,,,,,
5.553973000000042,-44.0889385725642,-71.70210930142913,-93.35607470354934,-0.4178399443626404,5.228769779205322,7.38525915145874,,,,,
5.563468000000057,-47.81883324706573,-68.24896206163986,-110.27410818754177,-2.6048946380615234,4.358524799346924,5.035634517669678,,,,,
5.582488000000012,-31.83584320017631,-71.6066997491295,-162.00001264202632,-0.8545632362365723,2.639418125152588,2.767137050628662,,,,,
5.592191000000184,-18.488762150139586,-73.29631616366099,168.8694785311757,1.0326597690582275,1.8403167724609375,2.803846836090088,,,,,
5.601706000000149,-14.602611503216034,-74.61151899161828,150.21085601218914,2.243867874145508,1.178091287612915,2.3417727947235107,,,,,
5.611206000000038,-27.041846667810585,-76.23404261586849,149.6398410947962,2.438520908355713,0.5516676902770996,2.313991069793701,,,,,
5.620542999999998,-54.68206539475969,-75.60602651756021,166.49581894829632,0.7629583477973938,1.0712307691574097,4.161438941955566,,,,,
5.630043999999998,-80.89863199558789,-71.19965681236852,-177.86463781381406,-2.020811080932617,2.1282384395599365,6.099397659301758,,,,,
5.639641000000211,-97.19141314771652,-65.65854381683282,-173.15043474688378,-5.001801490783691,2.6396524906158447,6.139721870422363,,,,,
5.649150000000191,-106.34606365110245,-61.918595622578636,-174.9767295378519,-6.93104362487793,2.938917636871338,4.435680389404297,,,,,
5.658664000000044,-112.15989035571472,-60.42636313005156,-178.37242603094055,-6.319940567016602,2.8448524475097656,3.802549123764038,,,,,
5.668175000000019,-116.08084974664213,-62.478991431844975,178.14931364179037,-4.177190780639648,1.7812321186065674,2.937227964401245,,,,,
5.6776810000001205,-117.46528140061332,-67.92899957003004,175.23137188723618,-2.271944522857666,1.3557298183441162,2.422924757003784,,,,,
5.68710800000008,-125.26783460338675,-74.19976929065383,-179.58336474595689,0.12788188457489014,1.381824016571045,2.1392343044281006,,,,,
5.6968040000001565,-147.68716504332482,-78.90706011948342,-160.01077485502938,1.9900012016296387,0.23962485790252686,0.508533775806427,,,,,
5.7063150000001315,-175.98669349284364,-80.7058902820896,-132.639417560839,1.9580869674682617,-0.35305771231651306,-0.16316525638103485,,,,,
5.7158220000001165,169.5606418289307,-80.13081526422246,-117.22476220047541,1.1450436115264893,0.028376014903187752,0.15252840518951416,,,,,
5.725336000000198,170.5055811323549,-79.34511907145037,-117.28339359803569,0.4720972180366516,-0.14719600975513458,0.10214916616678238,,,,,
5.734850000000051,179.69325502714923,-79.77896243916088,-125.27712354281661,-0.30666011571884155,0.09351702779531479,-0.2715927064418793,,,,,
5.744370000000117,-167.53203430358707,-80.846381918769,-136.9003479239785,-0.426918625831604,0.47473466396331787,-0.34551942348480225,,,,,
5.753866000000016,-156.8406115949563,-82.15795038663198,-147.1089257829349,0.7889629602432251,0.5350873470306396,-0.3065250813961029,,,,,
5.763372000000118,-150.36359467256707,-84.38666230661636,-153.89662309139027,2.9135448932647705,0.6966094970703125,0,,,,,
5.772883000000093,-165.58684589693414,-86.55221258350623,-139.71482990702867,4.831568241119385,0.20180562138557434,-1.3718154430389404,,,,,
5.782386000000088,133.68869199070963,-86.33584032482237,-82.15376952335617,5.548186302185059,0.44388383626937866,-1.0290138721466064,,,,,
5.791907000000037,137.5122560995101,-84.46850885582016,-88.90737893375504,4.71607780456543,0.1632934808731079,-0.5657140016555786,,,,,
5.801411000000144,154.8413123773856,-82.36626569789189,-109.76461953367952,2.905904531478882,0.6929874420166016,0.7183535695075989,,,,,
5.8109350000002,170.00709317499988,-80.16889421690499,-129.579624188082,0.694993257522583,0.08928809314966202,-0.030921652913093567,,,,,
5.820260000000189,-176.57118003854717,-77.09653234680788,-146.23023987307613,-0.8950675129890442,0.3689992129802704,0.6739290952682495,,,,,
5.839366000000155,-162.35686635865432,-71.39625417258745,-166.6449700267905,-3.2001893520355225,0.3447840213775635,-0.5155504941940308,,,,,
5.848868000000039,-156.44033683649778,-69.53023314365824,-173.73226803367976,-3.7902586460113525,0.21877345442771912,-1.2324501276016235,,,,,
5.858380000000125,-150.57615500570495,-67.46407503814807,-178.70532434127512,-4.229646682739258,0.3566555380821228,-0.40421852469444275,,,,,
5.867893000000095,-144.9189517608866,-65.36809634198559,178.15251322280128,-4.785223007202148,-0.6548041701316833,-1.5216012001037598,,,,,
5.87739600000009,-136.45637316218122,-63.82502573418835,176.43615294233402,-5.792356967926025,0.19847235083580017,0.7040689587593079,,,,,
5.886902000000191,-128.68812470407755,-63.6783175290529,177.05805338764276,-5.764382839202881,0.4906327426433563,1.2723455429077148,,,,,
5.8964240000000245,-121.64470597230981,-65.1121334429571,179.6854956161056,-4.064525604248047,0.09508216381072998,1.5117048025131226,,,,,
5.905929000000015,-110.99498316852969,-68.35349177174959,-178.90181146054772,-2.492842435836792,0.8683723211288452,2.9015960693359375,,,,,
5.9153640000001815,-99.25107565834679,-72.68570841575834,-178.77139319264342,-0.34623581171035767,0.9406864643096924,3.708376169204712,,,,,
5.92506000000003,-88.69969059272793,-76.83744929985579,-178.99883993835644,1.9422096014022827,-0.04320336878299713,2.7891175746917725,,,,,
5.9345720000001165,-74.66012842903523,-79.42055888907406,177.30465400968538,2.6463818550109863,-0.1409645527601242,2.485538959503174,,,,,
5.944072000000006,-66.17445937328515,-80.06595418900102,178.91950491424285,2.1702818870544434,0.03307390213012695,1.9221746921539307,,,,,
5.953569000000016,-72.63922785636996,-79.32789006684953,-165.38211559717453,1.7258244752883911,-0.08354021608829498,1.3544186353683472,,,,,
5.963106000000153,-81.42506645000412,-76.95609820492793,-148.07158321277473,0.8552075028419495,0.2574578523635864,1.105668067932129,,,,,
5.9726190000001225,-86.17898179758112,-74.02803545738915,-135.94156960484213,0.09600675106048584,0.5090171098709106,0.21677260100841522,,,,,
5.982116000000133,-88.61112944290973,-71.95106502533575,-127.27773938754599,0.30304253101348877,0.3089408278465271,-0.6731712818145752,,,,,
5.991622000000007,-87.18430486294977,-71.43059444807592,-122.796273864831,0.9842190146446228,0.09829747676849365,-0.760286808013916,,,,,
6.001132000000098,-80.61069923609016,-72.40080613313317,-123.48589074279934,1.6699649095535278,-0.07815477252006531,-0.28852352499961853,,,,,
6.010639000000083,-68.9986015894957,-73.98207334884327,-129.2607802200973,2.4420435428619385,-0.5573112964630127,-0.27299147844314575,,,,,
6.020140000000083,-52.751664750709075,-74.77641457494107,-138.96837735887516,2.66815447807312,-0.546101987361908,0.38975989818573,,,,,
6.029667000000018,-36.91398827129213,-74.22179170921517,-148.0689226803815,2.0548882484436035,-0.5089547634124756,0.7671715021133423,,,,,
6.039160000000038,-25.11166214469034,-73.09531991086887,-152.87079767062653,1.2132580280303955,-0.746062159538269,0.7980798482894897,,,,,
6.048675000000003,-15.80626569072962,-72.03480579024499,-154.06113916240008,0.2745301127433777,-0.4245961904525757,1.5664759874343872,,,,,
6.05801200000019,-7.296584448790077,-71.15395029521386,-154.60178220285533,-0.7058824300765991,-0.21542751789093018,2.0472865104675293,,,,,
6.0675240000000485,2.0009676497457507,-70.60231909579632,-156.72124608453166,-1.3488370180130005,-0.20209479331970215,1.7863092422485352,,,,,
6.0770330000000286,13.296098845824005,-70.0842930508612,-161.75765127001372,-1.484140157699585,-0.07011494040489197,1.7082865238189697,,,,,
6.0865510000000995,25.474402244471566,-68.91502853967303,-169.34157704386297,-1.5284693241119385,-0.10080946236848831,1.2694816589355469,,,,,
6.096064000000069,36.6095433566695,-67.0533894920774,-178.0272729585052,-1.4808964729309082,-0.2808765172958374,0.22740626335144043,,,,,
6.105650000000196,45.38409313481017,-64.84704369722259,173.43610376920523,-1.632814884185791,-0.43187475204467773,-0.7031981945037842,,,,,
6.115162000000055,51.48850750737652,-62.80650085588461,165.54859551529955,-2.213425397872925,-0.40151920914649963,-1.32431161403656,,,,,
6.124667000000045,55.056036386745696,-61.417075074549714,158.16603357127119,-3.2075939178466797,0.07652419805526733,-0.8561478853225708,,,,,
6.13416600000005,55.25333111427544,-60.911487119215785,151.50751380248266,-4.142977714538574,0.36809849739074707,-0.671349287033081,,,,,
6.1436160000000655,50.236778968335905,-61.429578002131535,147.1370891092423,-4.571902275085449,1.6815965175628662,2.143482208251953,,,,,
6.153205000000071,36.02447818867882,-62.742362322558705,147.7345095693482,-4.1837005615234375,1.1122833490371704,1.0411204099655151,,,,,
6.162633000000142,16.32236689482248,-64.15650843161295,154.24115829907848,-2.790280818939209,2.076700448989868,3.8020033836364746,,,,,
6.172138000000132,-8.463232142342878,-63.30329037712502,163.96751280875517,-1.21671462059021,4.3577070236206055,6.175131797790527,,,,,
6.181647999999996,-33.685959934449684,-60.07431002031032,170.63831115985545,0.3006351590156555,3.6366472244262695,4.914856433868408,,,,,
6.191154000000097,-52.71970831643896,-56.521092348195495,171.5464108627262,0.9915675520896912,3.2560513019561768,5.734241008758545,,,,,
6.200666000000183,-67.14650888112443,-54.868749124054084,167.8722101302258,0.4881187081336975,4.321975231170654,5.8481879234313965,,,,,
6.210175000000163,-82.25330443396098,-56.95699097835896,163.67825272022685,-0.9050736427307129,3.70198917388916,3.3110904693603516,,,,,
6.219774000000143,-99.02215659368466,-62.26168676614358,163.5606713656857,-1.8296147584915161,2.62998104095459,2.44448184967041,,,,,
6.229276000000027,-119.11181350108765,-68.4423504485512,169.85624047921942,-2.280158519744873,2.356381416320801,2.398977279663086,,,,,
6.238791000000219,-146.45285012299584,-72.55501592453739,-175.67404002268316,-2.09893798828125,1.3954813480377197,1.5234824419021606,,,,,
6.248221000000058,-172.26783479698796,-73.66397581943548,-162.22780570258828,-0.6730196475982666,0.716009259223938,1.8037598133087158,,,,,
6.257730000000038,172.7588645968151,-75.01012987973887,-159.757628356557,1.0054502487182617,1.2758874893188477,2.5771777629852295,,,,,
6.267419000000018,168.0738401119929,-78.00883345804351,-168.61944303920552,2.5367722511291504,1.6341552734375,2.4393861293792725,,,,,
6.286436000000094,-158.57370409424036,-84.49789508676818,130.57005218794643,3.7434444427490234,3.2209484577178955,3.0023083686828613,,,,,
6.29595600000016,-168.3809829667349,-86.57625352928058,125.32693549698551,2.509150981903076,1.3020864725112915,0,,,,,
6.314785000000029,92.73374229715992,-77.9095423963516,-156.0586792681892,0.6454025506973267,3.027998924255371,3.5388498306274414,,,,,
6.324492000000191,88.73764540832504,-70.51795413095337,-166.6881708270728,0.14956963062286377,0.39518043398857117,-0.7352422475814819,,,,,
6.334002000000055,87.35984114879176,-64.77047570254626,-176.0915379079079,0.11333060264587402,-0.814591646194458,0.37343814969062805,,,,,
6.343314000000191,85.34500074901717,-61.698599056519065,177.23550173232977,-0.8704648017883301,0.9499942064285278,2.8941919803619385,,,,,
6.352837000000136,78.47663288962863,-61.08154466123509,172.21814938331482,-1.2000701427459717,0.2543286979198456,0.8678882122039795,,,,,
6.362334000000146,69.76430204624918,-62.130577531035236,170.2299993889803,-2.1374502182006836,0.06078749895095825,0.7666503190994263,,,,,
6.371852000000217,59.65238742442556,-63.153690451591785,170.94989198640587,-3.8126730918884277,2.1617813110351562,3.1166977882385254,,,,,
6.381347000000005,46.96200661197367,-62.69168285701785,171.05295680818043,-5.514314651489258,2.7987303733825684,2.986699342727661,,,,,
6.390875000000051,34.77328638757931,-60.77261137816402,168.5457646273581,-6.504202842712402,2.702207565307617,4.095923900604248,,,,,
6.400385000000142,21.799807965215983,-58.66340768361578,166.06371038912633,-6.015188694000244,2.744091272354126,4.7637553215026855,,,,,
6.409892000000127,5.929925241877491,-57.82667871093977,167.3631951091116,-4.671594142913818,2.368436813354492,5.337874412536621,,,,,
6.419397000000117,-11.350211254356319,-55.91630066005909,169.37029532221473,-2.436612844467163,3.0599524974823,5.4770283699035645,,,,,
6.438598000000184,-46.27951374056164,-55.08179263895147,174.69239963712536,1.318998098373413,2.0283350944519043,3.433744192123413,,,,,
6.447927000000163,-60.87144702968796,-55.34033501520107,176.1060005612031,0.876732587814331,2.516411304473877,3.07112717628479,,,,,
6.457442000000128,-75.7920414999129,-57.23809269239487,177.99452605904773,-0.7113217115402222,1.9440162181854248,1.009526014328003,,,,,
6.4670460000002095,-92.25019368632037,-60.99923312924472,-176.20781321104263,-1.5070579051971436,1.7890208959579468,1.4801729917526245,,,,,
6.476545000000215,-109.49411627263146,-65.45498237050576,-168.0580570407836,-2.1182029247283936,1.7238287925720215,1.3020200729370117,,,,,
6.48604800000021,-129.82274133879767,-69.21491540779051,-156.11799951342294,-2.2164700031280518,1.1409642696380615,0.4225728511810303,,,,,
6.495485000000144,-152.37169010732654,-70.56600191074803,-141.5674728943337,-0.6925102472305298,1.0928270816802979,1.4442977905273438,,,,,
6.505004000000099,-171.23391201916155,-70.761580029349,-132.17266710983793,1.2891021966934204,1.4786956310272217,2.4364590644836426,,,,,
6.5146920000001955,174.14210264883883,-71.1635203135847,-129.15073350177286,3.035071611404419,1.6337530612945557,2.7551801204681396,,,,,
6.524198000000069,160.95509452514602,-71.69126016588127,-129.2636761182892,4.4751505851745605,2.9708445072174072,4.161914825439453,,,,,
6.53371600000014,141.9373629549107,-71.79727834945572,-125.0486987008395,4.64122200012207,1.5545434951782227,2.252678155899048,,,,,
6.552733000000217,109.6771751940585,-63.67444408413912,-115.872951634541,1.9350662231445312,1.5618140697479248,3.9208948612213135,,,,,
6.562060000000201,99.59520229056116,-57.78941260368018,-119.06552044621266,0.9075680375099182,1.27582848072052,4.112997055053711,,,,,
6.571570000000065,92.12322242608067,-53.66976950825251,-125.16787964495184,0.2424439787864685,-1.034117579460144,1.1951907873153687,,,,,
6.581285000000207,90.95290295142308,-52.62978661805404,-133.9092382783129,0.21161752939224243,-0.8604360222816467,0.07877499610185623,,,,,
6.5907770000001165,91.8108454315775,-54.54323065845161,-143.95795235256193,0.4892083406448364,0.12837934494018555,1.0851938724517822,,,,,
6.600288000000091,90.60592619329869,-58.574433875160615,-152.74601878716126,-0.21718347072601318,0.06410032510757446,-0.8632503151893616,,,,,
6.609614000000192,91.02265208978405,-63.40848230368583,-162.50843295393597,-1.9617393016815186,0.7605502605438232,-0.6265543699264526,,,,,
6.619210000000066,93.41961609734535,-67.03517250420353,-175.23959308969575,-4.374368667602539,2.1084063053131104,0.9814483523368835,,,,,
6.628705000000082,92.87283845358259,-68.27069228200152,172.70566016502218,-7.569705009460449,3.174805164337158,1.1873184442520142,,,,,
6.638221000000158,85.74736760444166,-69.98404136128822,167.86960173607264,-7.7882585525512695,3.472491502761841,1.1781268119812012,,,,,
6.647726000000148,68.34109097395195,-74.42859242452853,175.28277393430938,-5.3678364753723145,2.9357399940490723,1.4832168817520142,,,,,
6.657163000000082,36.365316891996784,-74.87621601164625,-161.05270577313547,-3.1570703983306885,2.60410213470459,2.5299839973449707,,,,,
6.666667000000189,16.379983663991997,-69.69231825881118,-150.4686401864255,-1.6359939575195312,2.703256368637085,3.9308037757873535,,,,,
6.676366000000144,8.239664112551832,-65.90511187589432,-154.80093247932095,0.7499496340751648,2.163768768310547,2.010671377182007,,,,,
6.685863000000154,3.54145058090747,-64.31063694425833,-163.93463157799718,2.569959878921509,1.736183524131775,2.3681068420410156,,,,,
6.695373000000018,-0.9415802267167823,-64.77586537776284,-173.1451726945417,2.2033936977386475,1.5202741622924805,1.2525643110275269,,,,,
6.704897000000074,-7.794297428454383,-68.56669848142978,-179.29544847709403,1.553992748260498,1.073659062385559,1.1277837753295898,,,,,
6.71440500000017,-20.43856443815583,-73.56430201900586,-178.18960780258166,0.8458829522132874,0.707650899887085,2.4041225910186768,,,,,
6.723728000000165,-43.57134377103081,-76.52958890755116,-165.35359126454125,-0.4758123755455017,1.082726240158081,2.260669469833374,,,,,
6.733248000000003,-74.25182288719613,-76.07321720191038,-145.30723767689332,-1.1900639533996582,1.4845471382141113,1.7547013759613037,,,,,
6.742750000000115,-95.9962066547009,-72.93999917699287,-134.77308561282553,-0.7359975576400757,1.648480772972107,1.205754280090332,,,,,
6.752276000000165,-105.4769782465578,-70.10373025839532,-136.7363715556106,-0.17104840278625488,2.2998270988464355,1.8237160444259644,,,,,
6.761769000000186,-111.7102419804263,-69.31555167174014,-143.1246152209581,0.7423834204673767,2.6707818508148193,2.0594162940979004,,,,,
6.7712880000001405,-118.43242727225456,-71.23491800153947,-150.39217974841054,2.4556570053100586,2.8826704025268555,3.907454490661621,,,,,
6.780794000000014,-128.21469257062103,-75.92215169617735,-156.1950165397215,3.307738780975342,3.5602142810821533,4.262065410614014,,,,,
6.79047700000001,-158.0031007763527,-80.90486317894289,-142.85946183190023,3.3676064014434814,2.3937113285064697,3.0355167388916016,,,,,
6.799990000000207,149.27871166984116,-80.5427863551073,-105.67842629681851,3.0358099937438965,2.1960184574127197,3.839188575744629,,,,,
6.809508000000051,126.72247321855312,-76.07541052278594,-98.79663088235161,2.3069348335266113,1.709492802619934,3.530891180038452,,,,,
6.8190270000000055,123.64028121798167,-72.45222151609656,-111.48685530127005,1.7324014902114868,0.4250229597091675,2.712797164916992,,,,,
6.8283600000002025,129.33801060225088,-71.04622154178783,-131.04700281457957,0.715782880783081,0.11869384348392487,2.881284236907959,,,,,
6.837875000000167,140.15210604604368,-71.09552497864216,-154.57339001758663,-0.9131965041160583,0.9783296585083008,2.7714955806732178,,,,,
6.847457000000077,152.07434080246784,-70.86563729070105,-179.35249248914184,-2.7157797813415527,1.205260992050171,0.931816816329956,,,,,
6.856973000000153,160.24468273335341,-69.62591587462492,160.88427797480753,-4.559198379516602,1.7307124137878418,-0.28340715169906616,,,,,
6.866475000000037,159.31545268697022,-67.76111511824048,151.10781227221744,-6.28585958480835,2.9248971939086914,-0.1808067262172699,,,,,
6.875985000000128,147.2241199567929,-65.71628729318553,151.5109989659898,-6.536978721618652,3.041861057281494,-0.44439753890037537,,,,,
6.885492999999997,130.98141750496384,-64.06178551091857,156.34233073731966,-6.2724151611328125,1.7188208103179932,-1.1422412395477295,,,,,
6.895005000000083,116.00870643502529,-63.06452240557228,161.79361084136187,-5.4052886962890625,1.654691219329834,1.2603219747543335,,,,,
6.904435000000149,99.06819186191846,-62.22303237942982,167.39910424803955,-3.4033448696136475,1.4430665969848633,2.222660541534424,,,,,
6.913947000000007,80.54021654412873,-61.95793155307523,172.7651664661945,-1.2722766399383545,1.2676334381103516,2.3916919231414795,,,,,
6.923627000000124,61.704361921596934,-63.259846121504225,177.5042774985889,0.6836538910865784,1.3567713499069214,2.2770731449127197,,,,,
6.933136000000104,41.1479670994123,-66.17841223798416,-175.84231675972373,2.505542516708374,1.5849733352661133,2.508970022201538,,,,,
6.9426360000002205,15.718067515167052,-68.40263908540163,-163.58669738179435,3.0380759239196777,2.1328179836273193,2.9015421867370605,,,,,
6.95216900000014,-10.92289204892152,-68.83861818954342,-150.37766205233126,2.1366472244262695,2.4924850463867188,2.4227511882781982,,,,,
6.961668000000145,-33.583104721315756,-69.12103470421718,-141.8018425425616,1.0529811382293701,2.4260525703430176,1.9026902914047241,,,,,
6.97099500000013,-50.94155638987585,-70.70742729099305,-138.44042113076753,0.08600610494613647,2.3331446647644043,1.3296352624893188,,,,,
6.980518000000075,-65.64531123811177,-74.291115132279,-137.20480234884005,-0.3385929465293884,2.162879705429077,0.12997396290302277,,,,,
6.990018000000191,-83.83846621664459,-79.16628420757664,-131.8497805724424,-0.20832568407058716,1.9765708446502686,0.17186911404132843,,,,,
6.999533000000156,-116.74208581136239,-83.27607467785384,-111.50476757107356,0.4839251637458801,1.8848674297332764,1.0507872104644775,,,,,
7.009042000000136,-168.84813474730123,-84.58020935444698,-73.55580696051501,0.9473109841346741,2.0025296211242676,2.1934778690338135,,,,,
7.018754000000172,157.20888320510372,-84.08925062671325,-55.69118565527048,1.4420137405395508,2.0122945308685303,3.1998188495635986,,,,,
7.028261000000157,148.78836488110073,-84.36592106667173,-63.682653647302786,2.018343448638916,2.0207889080047607,4.0605058670043945,,,,,
7.037753000000066,169.36875112914717,-85.53401970326964,-100.22804826758706,2.1063389778137207,2.168649911880493,4.139483451843262,,,,,
7.047262000000046,-144.15707033257706,-84.49783874416077,-162.89208557959628,1.659440040588379,2.060199737548828,3.1469340324401855,,,,,
7.056588000000147,-134.65592261828562,-80.85226631357767,172.42833471015138,0.737187922000885,1.855583906173706,2.0152320861816406,,,,,
7.066109000000097,-140.9532554885105,-76.88861976671564,165.45632685047187,-0.7132022380828857,1.7397900819778442,0.9056950807571411,,,,,
7.075712000000067,-153.31861156432888,-73.2553728255597,166.25401611442476,-2.389967441558838,1.4427250623703003,-0.23768073320388794,,,,,
7.085209000000077,-167.72436633841815,-69.64812063711152,171.3847304056934,-3.814645528793335,1.0269083976745605,-0.9877969026565552,,,,,
7.094724000000042,179.2391365076715,-65.82837950818751,177.70064937337165,-4.889317989349365,0.872763454914093,-1.0004693269729614,,,,,
7.104224000000158,168.9202168513457,-62.51492840464324,-177.73990196945374,-5.156409740447998,0.08853885531425476,-1.415022373199463,,,,,
7.113758000000189,163.69199226116046,-61.682197355449624,-176.453332490733,-4.478113174438477,-0.5703697800636292,-1.8121687173843384,,,,,
7.1231840000000375,164.32549875656116,-63.81523858755612,-178.42838963121133,-3.8866419792175293,-0.32187455892562866,-2.1256017684936523,,,,,
7.132764000000179,168.3408184021397,-67.37744503997291,178.1017767456073,-2.5825536251068115,0.8884924650192261,0.08935311436653137,,,,,
7.142187000000149,170.39397286796196,-71.53748655848,176.00719285589113,-1.4349021911621094,0.20040753483772278,-1.2426989078521729,,,,,
7.151878000000124,171.52755158203715,-75.10780257240268,176.9502355578218,-0.3894501328468323,-0.049546100199222565,-1.3018962144851685,,,,,
7.161399000000074,168.59626507467905,-77.50314343372453,-176.37181039462192,0.5937219858169556,0.21412426233291626,-0.1272285431623459,,,,,
7.170905000000175,158.13035820951566,-78.88623706841715,-162.55585547514346,0.8745020627975464,-0.4206748604774475,-0.15315701067447662,,,,,
7.1804040000001805,145.04239685057522,-79.17949732454531,-145.67711010792283,0.7212712168693542,-0.8386414051055908,0.21876001358032227,,,,,
7.189927000000125,134.06544523801753,-78.89711208695621,-130.63270385295885,0.27471333742141724,-0.870879590511322,1.008974313735962,,,,,
7.199237000000039,124.28791397214648,-78.7875941116017,-117.35313225725594,-0.06920033693313599,-0.921922504901886,1.6043357849121094,,,,,
7.208766000000196,113.80261701692669,-79.00030487768797,-104.32486863494606,0.1430957317352295,-0.7328231334686279,2.305304765701294,,,,,
7.218466000000035,101.26624566402984,-79.28807081891955,-90.90499912388294,1.0024926662445068,-0.8192517757415771,2.2273550033569336,,,,,
7.227955000000065,88.40413845606146,-79.4891990631144,-78.23055274895606,2.40386962890625,-0.7756474614143372,1.9294100999832153,,,,,
7.23747800000001,78.63658150122502,-79.69123795095688,-69.5025319585198,3.716683864593506,-0.28091487288475037,1.5522855520248413,,,,,
7.246986000000106,77.81550693742754,-80.22348364193489,-70.8274300158335,4.151090145111084,-0.06567943096160889,0.9386898279190063,,,,,
7.256491000000096,89.87777605598457,-80.75230838641644,-85.48045856625743,3.0015432834625244,0.06628130376338959,0.7161921262741089,,,,,
7.266006000000061,111.80512431517091,-80.27583075071685,-109.07714016034855,1.8824673891067505,-0.3114139139652252,0.7190971374511719,,,,,
7.2755140000001575,134.33008737379697,-78.55042200025125,-132.9767665007244,0.39692193269729614,0.3726712763309479,1.9630259275436401,,,,,
7.284856000000218,150.33988417803442,-75.84578242538532,-151.5912782949043,-0.9812117218971252,-0.17158445715904236,0.45691680908203125,,,,,
7.294443000000001,163.01071025944913,-72.68360702961061,-165.7424825150734,-1.6960335969924927,0.07586975395679474,0.11360327899456024,,,,,
7.303953000000092,172.63352085472897,-69.3396564834164,-176.36707651657798,-2.5268771648406982,0.4591190218925476,-0.23231613636016846,,,,,
7.313376000000062,179.47248200677782,-65.61105718387103,175.8628234314258,-2.8403525352478027,0.08797313272953033,-1.690658450126648,,,,,
7.322877000000062,-174.63864219227221,-61.49067387559152,170.550967523965,-3.4861249923706055,0.17730550467967987,-1.907524824142456,,,,,
7.332399000000123,-169.68846992366392,-57.28477285760617,167.78961189131363,-4.964195251464844,-0.2145700752735138,-2.377901792526245,,,,,
7.341999000000214,-164.84034729261145,-54.481900710891715,168.0389309708415,-6.685477256774902,0.4919375479221344,-0.6023351550102234,,,,,
7.351501000000098,-162.20729688993143,-54.53892899936056,171.6616842364513,-7.108663558959961,0,-0.8026654124259949,,,,,
7.361010000000078,-161.17032674212524,-57.70981416366838,178.01832820837814,-5.1033616065979,0.21380946040153503,1.794838309288025,,,,,
7.3705240000001595,-162.7884656911471,-62.99318758699921,-174.63452384412105,-2.4684276580810547,-0.9628162384033203,1.0368719100952148,,,,,
7.379951000000119,-162.10675493857602,-68.64969678932135,-168.90982373126346,-0.5010161399841309,-1.5489730834960938,0.4770108461380005,,,,,
7.389644000000089,-155.89155475237146,-73.2582535852168,-167.1977858208625,1.2885618209838867,-0.1374816596508026,2.0112946033477783,,,,,
7.399164000000155,-146.01348451383723,-75.91845252020794,-170.6123837060113,2.764366388320923,-1.152573823928833,0.2111731916666031,,,,,
7.408659000000171,-132.2311245546369,-75.9072551475985,-177.02161239927725,2.321554183959961,0.028660088777542114,1.1732174158096313,,,,,
7.4181670000000395,-125.49651736742149,-74.4488669726636,-177.1012255003825,1.3554885387420654,-0.17679105699062347,0.7321907877922058,,,,,
7.427685999999994,-125.16410501437468,-73.30926560478174,-170.533649304619,0.286441445350647,0.19083815813064575,0.9251254796981812,,,,,
7.437020000000075,-130.33739706914287,-73.51867549007659,-159.1681993006996,-0.2823910117149353,0.8592898845672607,2.0990405082702637,,,,,
7.44653100000005,-143.16705027683355,-75.28543514336693,-142.8404453429819,-0.17113125324249268,0.24246707558631897,1.1883481740951538,,,,,
7.45621600000004,-164.11106733551415,-77.36683548923477,-119.79911065813717,0.5732559561729431,-0.10084639489650726,1.1143773794174194,,,,,
7.465720000000147,169.74072521032667,-78.12807855800003,-93.51833712178787,1.6662373542785645,-0.07723432779312134,1.7074217796325684,,,,,
7.4752350000001115,150.0111453109262,-77.61002527754275,-76.44902956508298,2.6599996089935303,-0.22992120683193207,1.3315073251724243,,,,,
7.484752000000071,144.13877600332577,-77.6249098208925,-75.16060572997365,3.2655515670776367,0.12948204576969147,1.2863026857376099,,,,,
7.4942530000000716,153.5458566763796,-78.69509103255051,-90.10207535679433,3.352727174758911,0.45213937759399414,1.1431059837341309,,,,,
7.503765000000158,179.0126275504498,-79.193087354456,-120.79100912405198,2.48095440864563,0.9616643786430359,1.4463074207305908,,,,,
7.513258000000178,-154.85968641036638,-76.72476491471791,-152.74405377697698,0.9481149315834045,1.3539519309997559,1.244293212890625,,,,,
7.522596000000021,-143.29316264251258,-72.21089435473692,-170.31393784794756,-0.7043668031692505,1.269553303718567,0.6401420831680298,,,,,
7.532189000000017,-140.4885426243671,-68.15332551781387,-177.8914074785095,-2.118471384048462,1.2737617492675781,0.23991958796977997,,,,,
7.541697999999997,-141.65419689541383,-65.51855733825462,-179.84466849004517,-3.311336040496826,1.078913927078247,-0.5691129565238953,,,,,
7.551219000000174,-144.71448030542925,-63.6465151358507,-177.54837364513585,-3.8233609199523926,0.5214256048202515,-1.1202454566955566,,,,,
7.560728000000154,-146.62622815990474,-62.04123102071001,-173.6308956872817,-3.9159677028656006,-0.07937005162239075,-0.8104125261306763,,,,,
7.570237000000134,-144.49526407811496,-61.06953627086134,-170.8772197006035,-4.418816566467285,-0.7861528992652893,-0.8850868940353394,,,,,
7.57974900000022,-137.83411509701298,-61.31088085102965,-170.12112666584227,-4.783432960510254,-0.21434926986694336,1.1148122549057007,,,,,
7.589261000000079,-129.4462038600307,-62.21861436535792,-170.48300130606435,-3.9454760551452637,-0.5692603588104248,0.934646725654602,,,,,
7.598762000000079,-117.61734962812784,-63.3333395763071,-171.97457952806693,-2.81856632232666,0.032620519399642944,1.721531867980957,,,,,
7.6081980000001295,-104.02684387876052,-64.79503857493746,-173.7734665936375,-1.2754563093185425,1.0000765323638916,3.230116367340088,,,,,
7.617708000000221,-93.43360942627963,-66.6442823744786,-173.58564432451232,0.8760256767272949,0.46868616342544556,3.022493362426758,,,,,
7.627395000000206,-84.23922693293464,-68.65366499266182,-172.30763455627365,2.266407012939453,0,2.3038153648376465,,,,,
7.6369150000000445,-75.90033137812726,-70.36599303011965,-169.7019286318318,2.31620192527771,0.4196666181087494,2.311842441558838,,,,,
7.646416000000045,-73.61879813223179,-71.72808524489946,-161.86008039385567,1.9449124336242676,0.28996023535728455,2.023620843887329,,,,,
7.65593100000001,-76.64087923370839,-72.3191882173457,-149.75951383844958,1.0508809089660645,0.028237372636795044,1.7267600297927856,,,,,
7.665440000000217,-80.63945950779427,-71.98046367741493,-137.34885397170848,-0.09312903881072998,0.2626432180404663,1.0541821718215942,,,,,
7.674947000000202,-84.62143321122878,-71.29521279710089,-126.08056891611919,-0.6788612008094788,0.36311474442481995,0.28243571519851685,,,,,
7.684444000000212,-87.09600618514133,-70.77589025791004,-117.59865459389435,-0.393116295337677,0.1343315839767456,-0.47926226258277893,,,,,
7.693969000000152,-85.18536146988123,-70.68071767165782,-114.21467185236584,0.12690860033035278,0.0747046172618866,-0.8067222237586975,,,,,
7.703481000000011,-79.55597341565563,-70.96074530438703,-115.42295341957131,0.8858491778373718,0.07521528005599976,-0.6501792669296265,,,,,
7.712989000000107,-71.95422993194265,-71.23882743126401,-119.92179452976337,1.748767375946045,-0.2275349497795105,-0.7869598269462585,,,,,
7.722495000000208,-62.98716240112201,-71.06599357328815,-126.51652904910449,2.0808510780334473,-0.40886223316192627,-0.9766433238983154,,,,,
7.732018000000153,-55.15476460988016,-70.5749423407033,-132.43076696189706,1.7889177799224854,-0.20137417316436768,-0.6653140783309937,,,,,
7.741524000000027,-49.859968807076406,-70.24622205569689,-136.97207358189718,1.1164274215698242,-0.3045167028903961,-0.48691391944885254,,,,,
7.751035000000002,-45.28994618348167,-70.16446681374445,-141.50902868691577,0.08893930912017822,-0.3911082148551941,-0.2966184914112091,,,,,
7.760361000000103,-39.97611117437463,-70.23089796805759,-147.32768872360933,-1.1072977781295776,-0.055602580308914185,0.48112377524375916,,,,,
7.769871000000194,-33.934978592907605,-70.24592357063463,-155.18168255807143,-2.1231584548950195,-0.09840823709964752,0.7261773943901062,,,,,
7.779377000000068,-27.06070598305716,-69.9116690020309,-164.52739208954463,-2.862440586090088,0,1.49324631690979,,,,,
7.788890000000038,-20.899329520070175,-69.05681215180171,-173.84434519698073,-3.346426010131836,0.3306475281715393,2.756826400756836,,,,,
7.798395000000028,-17.693325566494714,-67.86982884468824,178.463999150886,-3.4012765884399414,0.2704441249370575,3.0972092151641846,,,,,
7.807898000000023,-17.72537008913209,-66.64022946836137,173.7331109582624,-3.0513699054718018,0.35162967443466187,2.7647182941436768,,,,,
7.817410000000109,-20.907738729787063,-65.58432765194497,172.33880134846052,-2.4478073120117188,0.9625310897827148,3.0025715827941895,,,,,
7.826918000000205,-27.609196580348666,-64.8562602993256,173.92766894199127,-1.6384952068328857,1.0367060899734497,2.57315731048584,,,,,
7.83644900000013,-36.33198148185477,-64.40067126077794,177.82890123722095,-0.924556314945221,0.6263991594314575,1.2780671119689941,,,,,
7.855476000000181,-53.036913934330734,-64.48196765374365,-171.4841255596191,-0.4147212505340576,1.34443998336792,1.1593612432479858,,,,,
7.864986000000044,-61.18147004284998,-65.61614088898074,-166.3087751315691,-0.5033568143844604,1.0165815353393555,0.25945085287094116,,,,,
7.884013000000095,-75.07043563651429,-70.40074958414635,-155.71708663366,-0.3438454866409302,1.0545101165771484,-0.027035247534513474,,,,,
7.89368300000001,-82.32586712164071,-73.24453257398059,-149.633909668716,0.10254740715026855,0.7486057877540588,-0.4214736223220825,,,,,
7.903205000000071,-89.34586364635707,-75.52196240334746,-143.3137602227004,0.7198917269706726,0.5873955488204956,-0.40893033146858215,,,,,
7.912712000000056,-94.22576916721147,-76.8120615799263,-139.01313226206304,1.3215744495391846,0.5204635858535767,-0.4340711534023285,,,,,
7.922211000000061,-95.36898236231207,-77.02114078070068,-138.60018519795406,1.7401835918426514,0.42958298325538635,-0.5602680444717407,,,,,
7.931725000000142,-93.140763446577,-76.22443938973537,-141.49154104247262,1.9100561141967773,0.5338640213012695,-0.3960089385509491,,,,,
7.941230000000132,-89.37255428823725,-74.72261517873396,-145.91431778239138,1.688741683959961,0.6291868686676025,-0.4194580614566803,,,,,
7.950755000000072,-85.67084447145787,-72.98977181738815,-150.19214295963013,1.1584079265594482,0.6660124063491821,-0.5099329352378845,,,,,
7.960255000000188,-82.46491030540072,-71.5121375076451,-153.71902704009915,0.5579865574836731,0.7190877795219421,-0.3965578079223633,,,,,
7.979282000000012,-74.31270949070144,-70.1004554195795,-161.56638128984167,-0.4516284763813019,0.44987109303474426,-0.2534520924091339,,,,,
7.988800000000083,-68.32582438307884,-69.80095815015694,-166.57097681955312,-0.738242506980896,0.21002233028411865,-0.14136895537376404,,,,,
7.998134000000164,-61.091014417411294,-69.25364422279489,-172.22055556530375,-0.9413217306137085,0.13685758411884308,0.5595275163650513,,,,,
8.007633000000169,-53.80527998534849,-68.15600627709874,-177.88902566369842,-1.239600658416748,-0.22246667742729187,0.8375823497772217,,,,,
8.017140000000154,-47.27686298567449,-66.54387308430151,177.54711175092018,-1.6733214855194092,-0.47443047165870667,1.2168844938278198,,,,,
8.026663000000099,-42.00461504056983,-64.75846105173902,174.41031185143615,-2.2912001609802246,-0.40969333052635193,2.0015010833740234,,,,,
8.036155000000008,-38.401608044409244,-63.28700494990293,172.41654031210055,-3.0539069175720215,-0.31608736515045166,2.3659098148345947,,,,,
8.045673000000079,-36.47225939331756,-62.53993657063557,171.06144585546843,-3.661867380142212,-0.039785236120224,2.757725238800049,,,,,
8.055185000000165,-36.175355518516234,-62.49962353795861,169.87935453293537,-3.8052585124969482,0,2.573291063308716,,,,,
8.06470000000013,-36.97736279875411,-62.84493864853598,168.99265886692626,-3.5374321937561035,0.4485989809036255,2.752734422683716,,,,,
8.074206000000004,-39.79164800013319,-63.38340077974169,169.0682548781412,-2.750638723373413,0.8964917063713074,2.6987102031707764,,,,,
8.083715000000211,-44.88773174173925,-63.79357918648014,170.52794429696903,-1.7641628980636597,1.0232510566711426,2.0481128692626953,,,,,
8.093232000000171,-51.83525793721296,-63.84798938457938,173.16027625139952,-1.073330283164978,1.3773497343063354,2.1383633613586426,,,,,
8.112238000000161,-69.14064428886776,-63.65885695995943,-179.80185144264556,-0.6636569499969482,1.359102725982666,1.7842271327972412,,,,,
8.12175000000002,-77.60990849748086,-64.12553030110844,-176.61798120843085,-0.9627291560173035,1.5646591186523438,1.8950046300888062,,,,,
8.131260000000111,-86.19663219967345,-65.47846033838269,-173.55526221875058,-1.3568493127822876,1.2081446647644043,1.0856328010559082,,,,,
8.140856000000213,-94.45252674701416,-67.6186017055774,-169.96423447843844,-1.4002782106399536,1.1458773612976074,1.2643791437149048,,,,,
8.15039200000001,-102.37804019567353,-70.18095177686273,-166.31985959581988,-1.2580385208129883,1.0437366962432861,0.8319545984268188,,,,,
8.159797000000026,-110.95768525053963,-72.58154773814266,-161.8862303316491,-0.8624852895736694,0.694452166557312,0.4020621180534363,,,,,
8.169503000000077,-119.63001248480072,-74.25456759449338,-156.81493133967993,-0.16835159063339233,0.5744054317474365,0.44079330563545227,,,,,
8.178999000000204,-126.30729016379497,-75.242030978152,-153.44928599058696,0.4334498643875122,0.6096410155296326,0.280144065618515,,,,,
8.188511000000062,-130.84364454169594,-75.73216747163163,-152.0339959440201,0.7819317579269409,0.526938259601593,-0.2794497609138489,,,,,
8.198019000000158,-134.29008290436857,-75.89554276441143,-151.0755084887135,1.113072156906128,0.587041437625885,-0.5030466914176941,,,,,
8.207540000000108,-137.53582828366766,-76.20008298963829,-149.80961159489547,1.2401330471038818,0.6327982544898987,-0.7078896164894104,,,,,
8.217041000000108,-141.82890534869233,-76.83225441035782,-146.93934205584662,1.1716773509979248,0.47504693269729614,-1.3696603775024414,,,,,
8.226554000000078,-148.20942345062844,-77.44294293808213,-141.11963236379918,1.1934581995010376,0.4003341794013977,-1.4460821151733398,,,,,
8.236062000000175,-155.612181693474,-77.81610230461037,-133.8638830957967,1.2040172815322876,0.10853210091590881,-1.5053539276123047,,,,,
8.245567000000165,-160.67168970284385,-77.93658173849491,-128.31279253464695,1.0735230445861816,-0.2696015238761902,-1.6548542976379395,,,,,
8.255077000000028,-160.47983137211014,-77.69684093426204,-126.98891673433975,0.8448031544685364,-0.27853721380233765,-1.1872758865356445,,,,,
8.264586000000008,-155.38149426365078,-77.03133167643468,-130.37298137739523,0.6250627040863037,-0.3412860929965973,-0.5013728737831116,,,,,
8.27409200000011,-147.02243359022108,-75.89350665766362,-136.9799425616334,0.29812055826187134,-0.6522257924079895,-0.5220664143562317,,,,,
8.283623000000034,-137.68362806321198,-74.1701124416551,-143.81630763757073,-0.14574623107910156,-0.4533838629722595,-0.12658746540546417,,,,,
8.29311900000016,-129.89062226210598,-72.20237681409435,-148.7667055365688,-0.4976534843444824,-0.2975669503211975,0.046197593212127686,,,,,
8.30244700000003,-123.56200363105295,-70.59902564631399,-152.04625310574684,-0.8295863270759583,-0.15540596842765808,0.39210861921310425,,,,,
8.311979000000065,-118.418081014148,-69.69665078712738,-154.0954318878445,-1.1043440103530884,-0.13722524046897888,0.9610608816146851,,,,,
8.321473000000196,-114.10765722453627,-69.52284900285684,-155.4782432837649,-1.2372421026229858,-0.17751038074493408,1.6967076063156128,,,,,
8.330986000000166,-110.07044306454628,-69.90345988059008,-157.15113903314145,-1.3769198656082153,-0.17441874742507935,2.3348963260650635,,,,,
8.34049600000003,-106.5466888421219,-70.43577477500617,-159.3520177801903,-1.4867030382156372,-0.24457129836082458,2.9191133975982666,,,,,
8.349996000000147,-103.72166574165286,-70.67845646703594,-161.88427155421834,-1.487626552581787,-0.09484803676605225,3.1185715198516846,,,,,
8.359516000000212,-101.68938135839603,-70.40822377780182,-164.66419476043276,-1.4923977851867676,0.34598103165626526,3.4600038528442383,,,,,
8.369027000000187,-101.01290094056061,-69.68149562715561,-167.28836205243195,-1.4778162240982056,0.6743303537368774,3.4487040042877197,,,,,
8.378536000000167,-101.20652595514754,-68.7535367385543,-169.59902301286863,-1.4361952543258667,0.7520576119422913,2.6800689697265625,,,,,
8.388043000000152,-101.45715328659942,-67.99473613714586,-171.50647472656297,-1.4479010105133057,1.3517193794250488,2.982734203338623,,,,,
8.397560999999996,-103.04716140469759,-67.81393690280618,-172.71548254480206,-1.3937647342681885,1.0991020202636719,2.007474899291992,,,,,
8.407005000000026,-105.01206086578122,-68.26202474674638,-172.84763026343077,-1.2090568542480469,0.6804245710372925,1.0888875722885132,,,,,
8.416590000000042,-106.2453835978019,-69.20888893465535,-172.10336297452787,-0.9827689528465271,0.9334506988525391,1.2958885431289673,,,,,
8.426080000000184,-107.54164897105628,-70.43188231539379,-170.89982280337526,-0.731500506401062,0.6887922286987305,0.7645004391670227,,,,,
8.435781000000134,-108.3055649217008,-71.50516364997779,-169.4691334236495,-0.5099634528160095,0.31050896644592285,0.4573436677455902,,,,,
8.445290999999997,-107.79602290569147,-72.10536110185195,-168.475778039304,-0.39611804485321045,0.14806638658046722,0.7190378904342651,,,,,
8.45479800000021,-106.04837529383401,-72.11624332387194,-168.2480792612931,-0.37104445695877075,-0.12559080123901367,0.33510828018188477,,,,,
