timestamp,Roll,Pitch,Yaw,Acc X,Acc Y,Acc Z,Gyro X,Gyro Y,Gyro Z,Acc Magnitude,Gyro Magnitude
0.0,-11.861049877383419,-26.461422860074144,-139.69137457849257,0.736344575881958,1.9705722332000732,-0.04505854845046997,,,,,
0.009583999999961179,-14.333951400003981,-26.24131928684195,-136.1607583486967,0.22641083598136902,0.9882166981697083,-0.335391640663147,,,,,
0.01894699999996874,-16.863897227412174,-25.78781902951014,-132.2468564733194,-0.43894004821777344,-0.06575316190719604,-0.6147648692131042,,,,,
0.02814300000000003,-19.105395197945,-25.195471831292643,-128.4898754370131,-1.0471723079681396,-1.1580748558044434,-0.8660017251968384,,,,,
0.03752900000000636,-20.784536626209196,-24.675552311008722,-125.20063441074483,-1.5503679513931274,-2.1702544689178467,-1.1421089172363281,,,,,
0.04691700000000765,-21.70746007696702,-24.392465588890907,-122.71918262397995,-2.0621771812438965,-3.0183935165405273,-1.377587080001831,,,,,
0.05629599999997481,-21.76209874733221,-24.34588349446483,-121.29902792474623,-2.448420763015747,-3.6130664348602295,-1.3880691528320312,,,,,
0.06568699999996852,-21.025638766830514,-24.445629565842367,-121.17493420366223,-2.544433832168579,-3.807716131210327,-1.1935415267944336,,,,,
0.07506000000000768,-19.705650644991568,-24.571194000084592,-122.51944506525794,-2.418816089630127,-3.514387845993042,-0.9330481290817261,,,,,
0.08444599999995717,-18.03444581987314,-24.632733945670058,-125.20819015503994,-2.1003966331481934,-2.8015263080596924,-0.666458010673523,,,,,
0.09383900000000267,-16.255237475782497,-24.612334959724077,-128.80033468355728,-1.6813689470291138,-1.761932611465454,-0.4265289604663849,,,,,
0.10313199999995959,-14.410037111390197,-24.556427911116042,-132.91512678241983,-1.2381095886230469,-0.6054468154907227,-0.2565436363220215,,,,,
0.11278999999996131,-12.410022563110283,-24.477352951178226,-137.28397755120142,-0.7642260193824768,0.5867220759391785,-0.06828981637954712,,,,,
0.12198499999999513,-10.23557239697546,-24.337770254293858,-141.6442192643299,-0.19055958092212677,1.7518069744110107,0.31970643997192383,,,,,
0.13136199999996734,-8.072356480022894,-24.127126209542823,-145.66878479418452,0.47574082016944885,2.747495174407959,0.839780330657959,,,,,
0.14093500000001313,-6.31972045960775,-23.896062826721955,-148.92399879220525,1.0945487022399902,3.4758920669555664,1.2213926315307617,,,,,
0.1503139999999803,-5.374576941271452,-23.704642645426045,-151.0894309894318,1.445061445236206,3.973903179168701,1.3605217933654785,,,,,
0.15950499999996737,-5.377586333501476,-23.546331545864422,-152.09994792613395,1.6279088258743286,4.291499137878418,1.3616199493408203,,,,,
0.16888899999997875,-6.223657909943841,-23.36667458779477,-151.97184439296706,1.5751533508300781,4.400017738342285,1.2924513816833496,,,,,
0.17819700000001149,-7.7000919823765015,-23.14130091014106,-150.82933954333956,1.422851324081421,4.229238033294678,1.1910552978515625,,,,,
0.18766499999998132,-9.69195421272058,-22.877978023777608,-148.7319048827489,1.17820143699646,3.8070545196533203,1.006237506866455,,,,,
0.19707299999998895,-12.181659029485537,-22.545126986931567,-145.77230844387498,0.8038963079452515,3.1719284057617188,0.7752041220664978,,,,,
0.20643100000000913,-15.156410474148233,-22.024930624369606,-142.24704017091648,0.38334521651268005,2.415924310684204,0.5023670792579651,,,,,
0.21582599999999275,-18.42782573768153,-21.229569112895955,-138.33658759223852,-0.08003860712051392,1.5824875831604004,0.14119046926498413,,,,,
0.22538800000000947,-21.61111735631795,-20.20556196712031,-134.19044935254362,-0.4912983477115631,0.6001287698745728,-0.21320468187332153,,,,,
0.2346069999999827,-24.405047374508484,-19.131538247372735,-129.91086857007602,-0.9709192514419556,-0.5326908826828003,-0.6668612957000732,,,,,
0.25336499999997386,-27.988526011812265,-17.684524129931624,-121.89103808429506,-2.387533187866211,-2.903249740600586,-1.5701427459716797,,,,,
0.2627420000000029,-28.669574941546085,-17.391469232235295,-118.92377785945199,-2.9389760494232178,-3.851949691772461,-1.7940171957015991,,,,,
0.27213599999998905,-28.69367578535125,-17.27803771858473,-117.37312500810043,-3.175718307495117,-4.379574298858643,-1.8399698734283447,,,,,
0.28149700000000166,-28.191364012945513,-17.24434031486717,-117.58385922408013,-3.0536446571350098,-4.317069053649902,-1.6462268829345703,,,,,
0.29090099999996255,-27.41669552907517,-17.198417568906997,-119.56233624396447,-2.7364110946655273,-3.759129524230957,-1.4753165245056152,,,,,
0.30027999999998656,-26.52380848154317,-17.073787119495183,-122.9948056486154,-2.380044460296631,-2.8766307830810547,-1.285245418548584,,,,,
0.3096509999999739,-25.588745138104766,-16.780578348789813,-127.33974200949324,-2.0489208698272705,-1.7810221910476685,-1.1131256818771362,,,,,
0.31904099999997015,-24.55740713441033,-16.29903995424505,-132.17905887456251,-1.7858842611312866,-0.7386292815208435,-0.86664879322052,,,,,
0.32842799999997396,-23.387311204694186,-15.656593929958612,-137.18132200720277,-1.6123566627502441,0.09624573588371277,-0.5668333768844604,,,,,
0.33780799999999545,-22.17791792250561,-14.862127229283095,-142.1436104115915,-1.4852757453918457,0.686200737953186,-0.26185882091522217,,,,,
0.3471979999999917,-21.149112561721576,-13.866927796660908,-146.98539329019025,-1.3279056549072266,1.0852062702178955,0.11201578378677368,,,,,
0.3565849999999955,-20.57890406515116,-12.595810579488317,-151.6107903612157,-1.1201379299163818,1.2560827732086182,0.46030497550964355,,,,,
0.3659579999999778,-20.695496061804704,-10.988752400204184,-155.9764124980598,-1.0953665971755981,1.4375989437103271,0.631322979927063,,,,,
0.3753409999999917,-21.47353008667751,-9.088438143742806,-160.20467010804393,-1.0463614463806152,1.724212646484375,0.9806346893310547,,,,,
0.38472999999999047,-22.824045655413205,-6.969816846352139,-164.19570644179467,-0.8582254648208618,2.002020835876465,1.4118931293487549,,,,,
0.3941019999999753,-24.57139263269454,-4.809347770009737,-168.05942554645895,-0.6443077325820923,2.387099504470825,1.8953644037246704,,,,,
0.4035000000000082,-26.49855986806839,-2.8340530214183253,-171.72179788885327,-0.20877495408058167,2.7602102756500244,2.563627243041992,,,,,
0.412873999999988,-28.44265634681505,-1.1970259045966596,-174.89414246028431,0.26702964305877686,3.0413434505462646,3.277679681777954,,,,,
0.42243700000000217,-30.300536536692373,0.0011220582138748937,-177.21442519975028,0.7717915773391724,3.170963764190674,3.9309628009796143,,,,,
0.4318179999999643,-32.03263743652598,0.7271146111118212,-178.42721518272344,1.1599780321121216,3.107727527618408,4.346103668212891,,,,,
0.44119499999999334,-33.64184771466357,1.0294295827392945,-178.5106409964239,1.2921338081359863,2.8260340690612793,4.4699788093566895,,,,,
0.4505990000000111,-35.100358257254086,0.9688517401476592,-177.50866362069885,1.146384596824646,2.3434362411499023,4.18933629989624,,,,,
0.4599799999999732,-36.31688983007176,0.49517017361776494,-175.61888718467316,0.828970193862915,1.867612600326538,3.5935933589935303,,,,,
0.469351999999958,-37.15204820223489,-0.44735445440441485,-172.9862600396249,0.514840304851532,1.4196019172668457,2.9798614978790283,,,,,
0.47874100000001363,-37.543139684971436,-1.7974103124676462,-169.6872690218234,0.21409869194030762,0.9274746179580688,2.2933599948883057,,,,,
0.48812499999996817,-37.53358950445005,-3.4989550748333254,-165.9349445955972,-0.047121815383434296,0.49169865250587463,1.6077306270599365,,,,,
0.49751299999996945,-37.32040604139964,-5.4524141626326355,-161.88375692768372,-0.2858262062072754,0.2011685073375702,0.9936853051185608,,,,,
0.5068989999999758,-37.065174806811676,-7.505317377422075,-157.68867653604957,-0.5783571004867554,0,0.4640185832977295,,,,,
0.5162770000000023,-36.89568717354275,-9.532880876932234,-153.531856828136,-0.8539361953735352,-0.23045843839645386,-0.05376136302947998,,,,,
0.5254810000000134,-36.95255985915431,-11.490260000953429,-149.5672396468204,-1.0600316524505615,-0.37713825702667236,-0.6203731894493103,,,,,
0.534864999999968,-37.278235368635386,-13.324603557503789,-145.8994430904562,-1.2874736785888672,-0.4010186195373535,-1.394534707069397,,,,,
0.5442610000000059,-37.72288780652385,-14.906805152943521,-142.67675271933328,-1.4974974393844604,-0.43745583295822144,-2.0905027389526367,,,,,
0.5536359999999831,-38.1234747356145,-16.02796240663846,-139.98016512230552,-1.5888241529464722,-0.5971198678016663,-2.613189220428467,,,,,
0.5630249999999819,-38.344042395233245,-16.605248872717993,-137.82958633696077,-1.6314337253570557,-0.7989776134490967,-3.038363456726074,,,,,
0.5724060000000009,-38.32043272751048,-16.728507638737117,-136.10735283433286,-1.84553062915802,-0.9289900064468384,-3.2279560565948486,,,,,
0.581784999999968,-38.03424801232474,-16.525675031376515,-134.82978960275307,-2.081014633178711,-1.0551021099090576,-3.313694715499878,,,,,
0.5911689999999794,-37.456293158722666,-16.079993871416043,-134.20187267767324,-2.234344720840454,-1.0638611316680908,-3.2779157161712646,,,,,
0.6005509999999958,-36.563613200446234,-15.417175278636511,-134.35621087098795,-2.2127187252044678,-0.9470651149749756,-2.999089002609253,,,,,
0.6099499999999694,-35.43148644089282,-14.5082637404823,-135.1661890724289,-1.987797498703003,-0.82370525598526,-2.605653762817383,,,,,
0.619324000000006,-34.19634539950924,-13.356615339463877,-136.5395880340231,-1.6820772886276245,-0.6909872889518738,-2.1269826889038086,,,,,
0.6286969999999883,-32.967801940732656,-11.984884002776278,-138.2697376918551,-1.2958918809890747,-0.5764336585998535,-1.6266237497329712,,,,,
0.638087999999982,-31.792960860209558,-10.439498007404426,-140.10284323932177,-0.8761075139045715,-0.5139934420585632,-1.0947744846343994,,,,,
0.6476779999999849,-30.70370042718912,-8.789873065421144,-141.91175307571507,-0.5100258588790894,-0.5216659307479858,-0.49982747435569763,,,,,
0.6570350000000076,-29.762550486020345,-7.093906865414348,-143.68029993870334,-0.26818692684173584,-0.5492768287658691,0.17238086462020874,,,,,
0.6664289999999937,-29.118055027389126,-5.366403840251371,-145.5546077042988,-0.13597974181175232,-0.36562177538871765,0.9331240057945251,,,,,
0.6758029999999735,-28.901237289988174,-3.6309975758535793,-147.77529224725407,0.1406540721654892,0,1.791025161743164,,,,,
0.6945660000000089,-29.786323728054356,-0.4830895302809601,-153.09062274296582,0.8431286811828613,1.1291935443878174,3.5561087131500244,,,,,
0.7133379999999647,-31.38005481463958,0.9162748063429419,-157.46483891146306,1.3733631372451782,2.175693988800049,4.750566482543945,,,,,
0.7227229999999736,-31.778428842073417,0.625848311638641,-158.13721748394835,1.2853347063064575,2.336348533630371,4.709496974945068,,,,,
0.7321029999999951,-31.67110624938836,-0.37188156645566933,-157.70726166927813,0.9316895008087158,2.464827537536621,4.365171432495117,,,,,
0.7414870000000064,-31.065374036579303,-2.023444729240141,-156.44230819092814,0.7010838389396667,2.5489423274993896,3.855348587036133,,,,,
0.7508789999999976,-30.14747912120709,-4.188882773358533,-154.59435712848992,0.4891319274902344,2.5460901260375977,3.2260360717773438,,,,,
0.7602640000000065,-29.20442562634736,-6.668355421521379,-152.29218212746537,0.2164507955312729,2.4556546211242676,2.5031466484069824,,,,,
0.7694619999999759,-28.577012335626353,-9.173066926243557,-149.52179595058684,-0.11647176742553711,2.234142780303955,1.7048134803771973,,,,,
0.7788489999999797,-28.52863056391187,-11.399411698942872,-146.26729634575725,-0.47507360577583313,1.8409169912338257,0.9092146158218384,,,,,
0.7882359999999835,-29.131578431679905,-13.141661166946436,-142.67519114444332,-0.9249535799026489,1.3131802082061768,0.12634575366973877,,,,,
0.7976189999999974,-30.249384671953468,-14.384488101020297,-138.97286023807519,-1.3876615762710571,0.7173284888267517,-0.6293624639511108,,,,,
0.8069939999999747,-31.62775006304077,-15.22439643504365,-135.30668212253957,-1.7434337139129639,0.044831037521362305,-1.4264692068099976,,,,,
0.8163989999999899,-32.93419417814299,-15.775437079067844,-131.75989658407644,-1.971325397491455,-0.7373096942901611,-2.247286319732666,,,,,
0.8257689999999798,-33.901402465990124,-16.151027518250128,-128.41321815459145,-2.1291518211364746,-1.5836361646652222,-2.9378552436828613,,,,,
0.8351619999999684,-34.40601108774078,-16.389620163815454,-125.35170618002208,-2.347625255584717,-2.523283004760742,-3.4691874980926514,,,,,
0.8445319999999583,-34.3762516133047,-16.435640116215254,-122.97140672595957,-2.609231472015381,-3.399293899536133,-3.7140135765075684,,,,,
0.8539240000000063,-33.815927218486934,-16.23869722154017,-121.79865694811255,-2.7418413162231445,-3.8750033378601074,-3.6903069019317627,,,,,
0.8633059999999659,-32.847116382402056,-15.783492730998157,-122.17289007190311,-2.8410768508911133,-4.0974626541137695,-3.0839922428131104,,,,,
0.8726979999999571,-31.817783174624665,-15.268915372575087,-124.2677669296141,-2.6991994380950928,-3.682338237762451,-2.932288885116577,,,,,
0.8820719999999937,-30.75966337124983,-14.728569145146633,-127.84946492104162,-2.44633412361145,-2.856710433959961,-2.347790479660034,,,,,
0.891459999999995,-29.82930872238613,-14.111478857997502,-132.56411890020823,-2.0084152221679688,-1.8948880434036255,-1.7082669734954834,,,,,
0.9008389999999622,-29.092502119095638,-13.281734346521409,-137.97394995978294,-1.632981538772583,-0.885623574256897,-1.129601001739502,,,,,
0.9102209999999786,-28.528965054362608,-12.191212408735778,-143.6729187413687,-1.3626090288162231,0.19086483120918274,-0.5030126571655273,,,,,
0.9196190000000115,-28.066422574651444,-10.894489840551024,-149.40588426274675,-1.1432833671569824,1.2806316614151,0.3505707383155823,,,,,
0.9289870000000064,-27.599298537181845,-9.489819496890705,-154.80474573651594,-0.9300549030303955,2.350381851196289,1.5302925109863281,,,,,
0.9383780000000002,-27.10621066932228,-8.139766394870271,-159.78606135940808,-0.47098714113235474,3.3331756591796875,2.7902703285217285,,,,,
0.9477640000000065,-26.72342544124672,-7.0155960625807605,-163.99062847798567,0,4.0555620193481445,3.7995176315307617,,,,,
0.9571320000000014,-26.58794288984764,-6.2235580133218,-167.15130674460096,0.3578767776489258,4.4099297523498535,4.471456050872803,,,,,
0.9665200000000027,-26.752963418705594,-5.797871808527133,-169.1551032395397,0.660505473613739,4.518490791320801,4.7638702392578125,,,,,
0.975906000000009,-27.20489665224899,-5.741870389027292,-170.06187002491498,0.704177975654602,4.500152587890625,4.701706886291504,,,,,
0.9852879999999686,-27.743809466807363,-6.038381787025155,-169.95386389790704,0.5880102515220642,4.217360496520996,4.333174705505371,,,,,
0.9946830000000091,-28.231731972699325,-6.754802654409286,-168.92268253724305,0.4091763496398926,3.7905917167663574,3.7115397453308105,,,,,
1.004067999999961,-28.673316275620515,-7.865058767902876,-166.97483672350617,0.2157406508922577,3.385485887527466,2.998037576675415,,,,,
1.01344899999998,-29.146884685131816,-9.150238651815576,-164.23682167390066,0,2.8893728256225586,2.2689898014068604,,,,,
1.02281899999997,-29.72878616788419,-10.351827167071475,-160.7753691242194,-0.3107186555862427,2.2953717708587646,1.5603740215301514,,,,,
1.0322189999999978,-30.49295548029943,-11.299249709350732,-156.80752010314444,-0.6085357069969177,1.6441495418548584,0.9266919493675232,,,,,
1.041593999999975,-31.385919652740004,-11.987885743284385,-152.5074599130424,-0.8589391708374023,0.9444906115531921,0.3568761348724365,,,,,
1.0509950000000003,-32.26347631067353,-12.542547600983466,-148.05292652719612,-1.0821428298950195,0.17337054014205933,-0.17833662033081055,,,,,
1.0603610000000003,-33.03108006100076,-13.111595883132434,-143.59050051089667,-1.145262598991394,-0.7149840593338013,-0.7660133838653564,,,,,
1.0697450000000117,-33.64624273912959,-13.749942907455686,-139.14952742232967,-1.1741551160812378,-1.812513828277588,-1.681896448135376,,,,,
1.0791419999999903,-33.964415780845975,-14.432866691154226,-134.7835686727591,-1.4370354413986206,-3.036241054534912,-2.5997846126556396,,,,,
1.0885169999999675,-33.915437316705294,-15.108949755031253,-130.92237420826964,-1.9237571954727173,-4.1885786056518555,-3.293394088745117,,,,,
1.0979089999999587,-33.37262346973212,-15.643149418171632,-128.17501900871423,-2.340959072113037,-5.159888744354248,-3.541372776031494,,,,,
1.1072849999999903,-32.36631434362206,-16.03022786358954,-127.11040262081434,-2.7141902446746826,-5.665276527404785,-3.5231306552886963,,,,,
1.1166709999999966,-31.058324834116128,-16.349448456654503,-127.96647050634132,-2.9891607761383057,-5.460994720458984,-3.4018168449401855,,,,,
1.1260540000000105,-29.500357953073213,-16.64122281498581,-130.75225406119873,-3.0199074745178223,-4.6390228271484375,-3.0555217266082764,,,,,
1.1354339999999752,-27.759158037598507,-16.826695001131228,-135.17326636488588,-2.8458633422851562,-3.30666446685791,-2.4588916301727295,,,,,
1.14480599999996,-25.95851675931866,-16.74822769076749,-140.68730638124248,-2.4558603763580322,-1.8178423643112183,-1.8311172723770142,,,,,
1.1542200000000093,-24.151168305030055,-16.33083099583208,-146.72038236899039,-2.149000883102417,-0.4674643874168396,-1.3055846691131592,,,,,
1.1635939999999891,-22.39793233947293,-15.63258245014402,-152.837249306485,-2.0304133892059326,0.7946716547012329,-0.5978055000305176,,,,,
1.1729609999999866,-20.751765501965313,-14.67335751478997,-158.6809323766652,-1.912994146347046,1.9299814701080322,0.284628689289093,,,,,
1.182343000000003,-19.24722535456653,-13.503737660947799,-164.1327737056264,-1.800230860710144,3.066749334335327,1.2721378803253174,,,,,
1.1917399999999816,-17.886257989041667,-12.255274208410246,-169.19994238378004,-1.3266139030456543,4.044063091278076,2.3615777492523193,,,,,
1.2011279999999829,-16.849644842741316,-11.19498709648163,-173.58147228636153,-0.6113870143890381,4.724411487579346,3.1208131313323975,,,,,
1.2105070000000069,-16.350495688921026,-10.561427088211405,-176.96471630502162,-0.19426816701889038,5.393421173095703,3.4706573486328125,,,,,
1.219885999999974,-16.28256014602894,-10.363959094931563,-179.1910812308706,0.14828096330165863,5.68381404876709,3.6388208866119385,,,,,
1.2292679999999905,-16.593312415969198,-10.502222134243492,179.80549881509586,0.4199197292327881,5.633174419403076,3.568037509918213,,,,,
1.2386659999999665,-17.36148535052365,-10.805412156404474,179.99719468911445,0.45107531547546387,5.462978363037109,3.2634284496307373,,,,,
1.2574209999999653,-19.78413339978906,-11.555375708859083,-176.28449515135068,0.25059860944747925,4.302470684051514,2.0334243774414062,,,,,
1.2668109999999615,-21.108646943945338,-12.002801724567577,-172.9823118892464,0,3.658949375152588,1.4657630920410156,,,,,
1.2761969999999678,-22.317479000135517,-12.420773927809135,-168.84199796918605,-0.2350957840681076,2.8942959308624268,0.9685249924659729,,,,,
1.2855879999999615,-23.244007727658484,-12.758011542323734,-164.17932692392415,-0.5136321187019348,2.0441017150878906,0.5910305380821228,,,,,
1.2949539999999615,-23.945607916601517,-13.013290826469197,-159.1408183732518,-0.7300112843513489,1.2125988006591797,0.36321091651916504,,,,,
1.3045209999999656,-24.615409027754453,-13.146766871305184,-153.84896857209907,-1.042648434638977,0.28946173191070557,0.15731358528137207,,,,,
1.3139019999999846,-25.39906641713603,-13.113989269728016,-148.50546292499652,-1.2729153633117676,-0.8188604116439819,-0.11655348539352417,,,,,
1.323116999999968,-26.439094880602394,-12.935597193101016,-143.3406078406701,-1.4314099550247192,-1.951888084411621,-0.6208787560462952,,,,,
1.3324979999999869,-27.65669084705978,-12.707586029527997,-138.64376841101085,-1.6517657041549683,-3.1042320728302,-1.3505868911743164,,,,,
1.3418780000000083,-28.721490805984306,-12.53347145012319,-134.76804081754167,-1.9821041822433472,-4.073450088500977,-2.044593572616577,,,,,
1.3512629999999604,-29.279850451388974,-12.479803975039323,-132.0846348430362,-2.088305711746216,-4.802399158477783,-2.5474343299865723,,,,,
1.3606560000000059,-29.126139527672617,-12.626801324465474,-130.76310379479048,-2.1166739463806152,-5.104101181030273,-2.8171133995056152,,,,,
1.370051999999987,-28.25387102365608,-12.954866355949937,-130.84450482468117,-2.2342536449432373,-4.901304721832275,-2.8099522590637207,,,,,
1.3794129999999996,-26.769181283330873,-13.346671757103543,-132.34863323023092,-2.162588596343994,-4.314646244049072,-2.5366997718811035,,,,,
1.3888149999999655,-24.878338391896488,-13.698543766428571,-135.1988462917159,-2.0907235145568848,-3.34765625,-2.0286877155303955,,,,,
1.3981809999999655,-22.90900752463076,-13.920217086988616,-139.0972192248323,-1.8765885829925537,-2.1414661407470703,-1.3520619869232178,,,,,
1.4075770000000034,-21.116732598889662,-13.952966764004708,-143.70263400807127,-1.7251313924789429,-0.9545432925224304,-1.0097572803497314,,,,,
1.416954999999973,-19.493358987452197,-13.80278750282293,-148.72458987271622,-1.532754898071289,0.12251506745815277,-0.651207447052002,,,,,
1.4263329999999996,-18.058551364700474,-13.449662568358727,-153.75609081771447,-1.3227812051773071,1.1462130546569824,-0.24000298976898193,,,,,
1.4357160000000135,-16.765099870661146,-12.931427469350043,-158.5498390376944,-1.196855068206787,2.221419095993042,0.3399789333343506,,,,,
1.445103999999958,-15.493393546065779,-12.343219548734139,-163.0338310746175,-0.8520696759223938,3.3375465869903564,1.116997241973877,,,,,
1.4544819999999845,-14.212911821176151,-11.860604435664847,-166.8813033964215,-0.3424137234687805,4.21845817565918,1.711148977279663,,,,,
1.4638610000000085,-13.024583813974337,-11.698773478135555,-169.7492455433878,0.055631235241889954,4.85936975479126,2.0008041858673096,,,,,
1.473242999999968,-12.076142514174894,-11.896325654500671,-171.44144914554823,0.24135614931583405,5.2250165939331055,2.192683219909668,,,,,
1.482637000000011,-11.508598906905984,-12.277337091613912,-172.14292960231123,0.45347774028778076,5.35042667388916,2.2320828437805176,,,,,
1.4920199999999681,-11.41881838635205,-12.703062027271237,-171.91708386020693,0.6382513046264648,5.299808025360107,2.0437657833099365,,,,,
1.5014059999999745,-11.824129902880268,-13.147835381027694,-170.75962374433635,0.6438614130020142,5.053915500640869,1.7137954235076904,,,,,
1.5107019999999807,-12.682620353553162,-13.585031148262097,-168.60325304095525,0.49808958172798157,4.493165969848633,1.228416919708252,,,,,
1.520181999999977,-13.90751359568121,-13.947596380181663,-165.53252815363354,0.2379394918680191,3.809818983078003,0.6815090775489807,,,,,
1.5295529999999644,-15.40226770032832,-14.135662762911108,-161.68578182736417,0,3.0428102016448975,0.26290231943130493,,,,,
1.5389439999999581,-16.994397102311783,-14.08004787848104,-157.2717969169987,-0.3059833347797394,2.113983154296875,-0.09239113330841064,,,,,
1.5483350000000087,-18.53141425239901,-13.780177763086646,-152.3761892773048,-0.5397796630859375,0.9945583939552307,-0.3496559262275696,,,,,
1.557707999999991,-20.007599072417328,-13.260997479536082,-147.20072030445735,-0.7381255030632019,-0.1959727704524994,-0.6686410903930664,,,,,
1.567105999999967,-21.432418379039245,-12.540441386825721,-142.01324579489687,-1.0447750091552734,-1.382304310798645,-0.8893672823905945,,,,,
1.576473999999962,-22.85346073785625,-11.563807839880528,-137.18392302179217,-1.4099655151367188,-2.647550106048584,-1.1109299659729004,,,,,
1.58587,-24.246087116998854,-10.37462483568929,-133.15206080060233,-1.7411941289901733,-3.7943239212036133,-1.453449010848999,,,,,
1.5952550000000087,-25.457193893401257,-9.16417309143741,-130.28794595080907,-2.2022745609283447,-4.57301664352417,-1.7234236001968384,,,,,
1.6046329999999784,-26.338735133391115,-8.174967055567091,-128.89330064869984,-2.411395311355591,-4.893697738647461,-1.8120856285095215,,,,,
1.6140249999999696,-26.880684561251822,-7.5351793492978025,-129.0995285507872,-2.281261920928955,-4.723841190338135,-1.8065693378448486,,,,,
1.6234000000000037,-27.131228409564564,-7.182792198980263,-130.84590939271362,-2.1426703929901123,-4.042031764984131,-1.6140059232711792,,,,,
1.6327779999999734,-27.26362763591532,-6.911989283701393,-133.91514046554178,-1.849083662033081,-2.9700307846069336,-1.2096534967422485,,,,,
1.6421589999999924,-27.45505342528894,-6.6325516738846355,-137.89079489193315,-1.445056676864624,-1.7492599487304688,-0.7777356505393982,,,,,
1.6515440000000012,-27.71181657806118,-6.383405574909292,-142.27257554124765,-1.2282122373580933,-0.6661174297332764,-0.4379267692565918,,,,,
1.6611149999999952,-28.021782518275426,-6.181618913022344,-146.7314382186171,-1.2000676393508911,0.22990436851978302,-0.09025007486343384,,,,,
1.6703210000000013,-28.478913237261924,-6.0036260837056,-151.10673228533372,-1.1140186786651611,0.93269282579422,0.390966534614563,,,,,
1.6797050000000127,-29.20946831618148,-5.774304724833988,-155.27317097176623,-1.0182933807373047,1.355628490447998,0.8766734600067139,,,,,
1.6890869999999722,-30.364561378642104,-5.444726110715947,-159.1875916047253,-1.0689326524734497,1.6614842414855957,1.2504444122314453,,,,,
1.6984699999999862,-32.01140117962006,-5.049312167116253,-162.881758883584,-1.0784083604812622,1.9517676830291748,1.6526857614517212,,,,,
1.707853,-34.09882237568895,-4.678499510250119,-166.32088315006158,-0.8833478689193726,2.1152265071868896,2.0548605918884277,,,,,
1.7172319999999672,-36.49527319769354,-4.418162418470138,-169.40267339959698,-0.7492545247077942,2.2577974796295166,2.18577241897583,,,,,
1.7266219999999635,-38.99160623983522,-4.378936275111224,-172.13570816112414,-0.5726479291915894,2.3968541622161865,2.3245596885681152,,,,,
1.7360079999999698,-41.47851169035227,-4.561991310801022,-174.4416921550834,-0.36648109555244446,2.544649124145508,2.5086140632629395,,,,,
1.745395999999971,-43.90599114375486,-4.892333987366719,-176.2246206306967,-0.12017499655485153,2.7188310623168945,2.724982738494873,,,,,
1.7547720000000027,-46.26857620229768,-5.283064678289888,-177.34497953105608,0.24220436811447144,2.865007162094116,2.8638060092926025,,,,,
1.7641489999999749,-48.6068275083986,-5.7031167506380305,-177.68261006088008,0.5006228089332581,2.9863929748535156,2.830270290374756,,,,,
1.7735500000000002,-50.91871370167105,-6.116427469177219,-177.1705746849741,0.7789276242256165,3.0847060680389404,2.708885908126831,,,,,
1.7923040000000015,-55.167970417551565,-6.217713045328768,-173.41155571076646,1.209294080734253,2.6057381629943848,1.9929625988006592,,,,,
1.8016969999999901,-56.89289667086879,-5.647075328554523,-170.23156134984288,1.2048040628433228,2.1719226837158203,1.3769638538360596,,,,,
1.8110889999999813,-58.13871351900557,-4.656352389168658,-166.38409213994547,1.1361373662948608,1.7171142101287842,0.7416964769363403,,,,,
1.8204650000000129,-58.66510449711516,-3.3267430951872243,-162.02375696392235,0.9858023524284363,1.2304117679595947,0.13963168859481812,,,,,
1.8298379999999952,-58.31889742149403,-1.784386303657328,-157.38998928016463,0.6525498032569885,0.6541485786437988,-0.29362952709198,,,,,
1.8394250000000056,-57.23860143453794,-0.24780891799121182,-152.61101767125757,0.24431094527244568,0,-0.5701776742935181,,,,,
1.848797999999988,-55.746648604133725,1.1595290587787739,-147.94598576108856,-0.08736792206764221,-0.7991437315940857,-0.9114187955856323,,,,,
1.858179000000007,-54.25083827889116,2.3731635912516866,-143.637450212173,-0.6081205606460571,-1.7484327554702759,-1.3367253541946411,,,,,
1.8767770000000041,-52.26524733300604,4.100518337779389,-137.6088652983531,-1.5049779415130615,-3.2420554161071777,-2.7774085998535156,,,,,
1.8861519999999814,-51.423260098639815,4.697062728375295,-136.47345156833538,-2.1172852516174316,-3.6587271690368652,-2.9089722633361816,,,,,
1.8955409999999802,-50.5785935057963,4.75734622550475,-136.96207185434668,-2.3387646675109863,-3.4516124725341797,-3.0342836380004883,,,,,
1.9049190000000067,-49.57598231740191,4.2330316433633355,-138.84119660930122,-2.2175912857055664,-2.7724695205688477,-2.507174015045166,,,,,
1.9143009999999663,-48.57709534610073,3.32196724227731,-141.86874224545684,-1.9548094272613525,-1.8019485473632812,-1.9366236925125122,,,,,
1.9236740000000054,-47.67677912680381,2.326690245831961,-145.6829074922395,-1.6713069677352905,-0.7342825531959534,-1.2220048904418945,,,,,
1.933074999999974,-46.93318619680609,1.4874283396959247,-149.89449203344347,-1.3411744832992554,0.2696364223957062,-0.42398422956466675,,,,,
1.9424559999999929,-46.30787544255733,0.8651569299772809,-154.1350953017819,-1.09070885181427,1.2275683879852295,0.4075360894203186,,,,,
1.9518269999999802,-45.67562843413251,0.3730357289614733,-158.1550390074581,-0.8457813858985901,2.036149024963379,1.2962355613708496,,,,,
1.961211999999989,-45.00158517870471,-0.06629563248207951,-161.74226554096387,-0.586025059223175,2.7006025314331055,2.1874818801879883,,,,,
1.9705940000000055,-44.44314226964987,-0.506949346044244,-164.81015615840653,-0.279687762260437,3.222154140472412,2.93192720413208,,,,,
1.9799800000000118,-44.20436581398166,-0.9693045728081399,-167.25290699069907,0.06287136673927307,3.5931525230407715,3.394153594970703,,,,,
1.989358999999979,-44.40569997072753,-1.4050446567748758,-168.80169381229067,0.318543940782547,3.879328489303589,3.554344415664673,,,,,
1.9987570000000119,-45.05615932693374,-1.7951124380873076,-169.35798769220716,0.47863471508026123,3.965092897415161,3.5175700187683105,,,,,
2.008123000000012,-46.0300918224837,-2.1072418791254632,-168.91592139896193,0.5446822643280029,3.8414382934570312,3.2099413871765137,,,,,
2.0175219999999854,-47.205745337592155,-2.2849371475720486,-167.5641144246589,0.5218191742897034,3.5138351917266846,2.70862078666687,,,,,
2.0269069999999942,-48.50197126973799,-2.27153222838054,-165.39639343050817,0.500580906867981,2.980010747909546,2.0924386978149414,,,,,
2.0362949999999955,-49.86347566516623,-2.0269194718637955,-162.500121222262,0.46141517162323,2.3146491050720215,1.3612241744995117,,,,,
2.0456759999999576,-51.242782757394295,-1.5157272971443847,-159.0959236825049,0.37639281153678894,1.5769215822219849,0.5292893648147583,,,,,
2.055234999999982,-52.505440463002884,-0.689510905964524,-155.28669416914482,0.2480701357126236,0.7135624885559082,-0.3792860507965088,,,,,
2.064446999999973,-53.48046354261079,0.4169369114945526,-151.2757885733075,0.040704816579818726,-0.3368262052536011,-1.3295252323150635,,,,,
2.073827999999992,-54.061513837474514,1.6306318388695762,-147.33965044840846,-0.32827213406562805,-1.400103211402893,-2.316154718399048,,,,,
2.083221999999978,-54.155694975986385,2.753861368765113,-143.90302959173653,-0.7212868332862854,-2.3349997997283936,-3.0898165702819824,,,,,
2.0926039999999944,-53.74011287589353,3.7299200641338754,-141.34327922884634,-1.0558830499649048,-3.1262083053588867,-3.3698477745056152,,,,,
2.1019809999999666,-52.979865544800624,4.487505141126776,-140.04945713108611,-1.3457427024841309,-3.648730754852295,-3.2027578353881836,,,,,
2.111355000000003,-52.30692637283832,4.894814352586818,-140.19606775149043,-1.6424378156661987,-3.6719112396240234,-2.7898335456848145,,,,,
2.120736999999963,-52.0451903498972,4.90056183743115,-141.9437491615619,-1.7421337366104126,-3.143033027648926,-2.2563791275024414,,,,,
2.130291999999997,-52.27779100184717,4.5670691657006515,-145.06771230232872,-1.6069024801254272,-2.1849119663238525,-1.4843907356262207,,,,,
2.1396879999999783,-52.86687790000438,3.9858554676454747,-149.13636528618267,-1.3420302867889404,-1.1552321910858154,-0.7825287580490112,,,,,
2.1490799999999695,-53.49283144471028,3.1909724727484883,-153.64854560945355,-1.162628173828125,-0.16224271059036255,-0.025972962379455566,,,,,
2.1584649999999783,-53.9009854547109,2.237794054814835,-158.16926897146146,-1.0757893323898315,0.7314968109130859,0.8457387685775757,,,,,
2.167667999999992,-53.998835562391186,1.1822228027534096,-162.43548883990977,-0.8885118961334229,1.558153748512268,1.8425590991973877,,,,,
2.177042999999969,-53.905119279768925,0.08119477198729137,-166.16534432926048,-0.5241588950157166,2.146866798400879,2.825408458709717,,,,,
2.1864309999999705,-53.93203902591483,-1.0204684663838792,-169.12695900347512,-0.27864548563957214,2.544980049133301,3.518108606338501,,,,,
2.1958139999999844,-54.38868509885237,-2.1079799516961764,-171.15918187657084,-0.2327146679162979,2.769068479537964,3.8708622455596924,,,,,
2.2052059999999756,-55.41134886636108,-3.180136805951412,-172.36946139760556,-0.2616550028324127,2.8513259887695312,3.9796411991119385,,,,,
2.214584000000002,-56.97140776858419,-4.3129537388851436,-172.80116638833965,-0.22355568408966064,2.8531694412231445,3.9204611778259277,,,,,
2.223971000000006,-58.92545184203039,-5.569161009447324,-172.4509009431451,-0.215874582529068,2.7658987045288086,3.6228103637695312,,,,,
2.233359000000007,-61.11239591285809,-6.9120902400276725,-171.27193882701272,-0.23673352599143982,2.5911107063293457,3.1826090812683105,,,,,
2.2427429999999617,-63.492178059067655,-8.220426814018545,-169.30367203127142,-0.17494484782218933,2.384812355041504,2.784184455871582,,,,,
2.252114000000006,-66.15064961039073,-9.322816651482086,-166.5868113218764,-0.10953570902347565,2.071044445037842,2.3518576622009277,,,,,
2.2614979999999605,-69.2121165904817,-10.083154076736433,-163.30548408033107,-0.08967609703540802,1.6778348684310913,1.7021186351776123,,,,,
2.270893000000001,-72.60581245064763,-10.495393997752124,-159.6527926919785,-0.05942325294017792,1.4582675695419312,0.9482553601264954,,,,,
2.280273999999963,-76.10394701208715,-10.571954491468736,-155.69018891889027,-0.0892849862575531,1.2463217973709106,0.23068124055862427,,,,,
2.289648999999997,-79.4286819455339,-10.299815412066465,-151.47266500089563,-0.18782585859298706,0.9891455173492432,-0.5455334186553955,,,,,
2.2990459999999757,-82.33252766915449,-9.746848244819695,-147.11380800962786,-0.20467421412467957,0.8037569522857666,-1.340036153793335,,,,,
2.3084220000000073,-84.7046924003805,-8.91863813433852,-142.8209987940073,-0.20895469188690186,0.4800769090652466,-1.9646117687225342,,,,,
2.317811000000006,-86.57743235142293,-7.746540960057358,-138.8553160596083,-0.2753341794013977,0.16243451833724976,-2.796109437942505,,,,,
2.3271899999999732,-87.6803911034589,-6.286114563762141,-135.39478207311012,-0.16219663619995117,0.11013692617416382,-3.845661163330078,,,,,
2.336586000000011,-87.65862255182651,-4.538676815026756,-132.54508217511534,-0.3702234923839569,-0.599240243434906,-3.99206805229187,,,,,
2.3553440000000023,-85.9490556609496,-1.2346044693550846,-130.0546006728594,-1.151266098022461,-1.250946283340454,-4.430181980133057,,,,,
2.3647249999999644,-84.52172321325766,-0.19039470651688306,-130.72157087058937,-1.3785068988800049,-1.270357608795166,-4.140750408172607,,,,,
2.3741149999999607,-82.7907411969073,0.3704369601493489,-132.42834894505236,-1.5949068069458008,-1.2161271572113037,-3.4158377647399902,,,,,
2.3835039999999594,-80.99394103936967,0.4362886732699218,-135.135308433955,-1.7989614009857178,-0.9545979499816895,-2.7212250232696533,,,,,
2.3928639999999746,-79.22964090214069,0.03655065626090935,-138.84596220755645,-1.8366820812225342,-0.5406652688980103,-1.8014276027679443,,,,,
2.4022659999999973,-77.60581095658114,-0.6710102476077626,-143.43692117686643,-1.7382550239562988,0,-0.8924599885940552,,,,,
2.421040000000005,-74.60574676775579,-1.951840967721574,-153.82748640087843,-1.437547206878662,0.7930049896240234,0.5796604752540588,,,,,
2.430409999999995,-73.01555975095187,-2.167804995688836,-158.9062597385868,-1.3642100095748901,0.9844899773597717,1.1098711490631104,,,,,
2.4397930000000088,-71.2257601237946,-2.1754770307089824,-163.66734346098514,-1.2108678817749023,1.2779496908187866,1.9014699459075928,,,,,
2.4491789999999583,-69.16629635921676,-2.057061438239204,-168.00209635822222,-1.0253145694732666,1.5384001731872559,2.850238561630249,,,,,
2.4585649999999646,-66.94301151501654,-1.9902507891616015,-171.75246404837176,-0.8872652053833008,1.724514365196228,3.601400136947632,,,,,
2.467940999999996,-64.75962033609974,-2.2016859516644796,-174.74047451972123,-0.7369889616966248,2.005028486251831,4.137912273406982,,,,,
2.4773289999999974,-62.7581839020189,-2.8272852097089394,-176.88458344813793,-0.4985290765762329,2.462773561477661,4.4171929359436035,,,,,
2.486708999999962,-60.86872840921552,-3.812965543708219,-178.1261776809073,-0.03965926915407181,2.936054229736328,4.5409040451049805,,,,,
2.4961059999999975,-58.95807240249549,-4.9056971065823145,-178.34906693999994,0.5157005190849304,3.1804327964782715,4.180290699005127,,,,,
2.5054930000000013,-56.80072753416292,-5.837220827677832,-177.43602589723073,0.8147620558738708,3.35172963142395,3.4593217372894287,,,,,
2.5148719999999685,-54.125230699890906,-6.463015660170302,-175.37176341860092,0.9603068828582764,3.4054548740386963,2.894216299057007,,,,,
2.524262999999962,-50.879539595460116,-6.7517458497951734,-172.2811511477074,1.0755929946899414,3.239473581314087,2.38096284866333,,,,,
2.533623999999975,-47.155317979685336,-6.774564221431592,-168.36045592074586,1.138149619102478,2.9523813724517822,1.8962470293045044,,,,,
2.5429320000000075,-43.107530538462456,-6.567335241991336,-163.79503148942104,1.0277938842773438,2.6023342609405518,1.604914903640747,,,,,
2.5524039999999673,-38.94938907758125,-6.190019296998317,-158.79624525714954,0.8203505277633667,2.0940895080566406,1.3259620666503906,,,,,
2.561977000000013,-34.89727975494907,-5.723369380774783,-153.42726765809974,0.5820110440254211,1.4239840507507324,1.0265953540802002,,,,,
2.571352999999988,-31.095918005182792,-5.233260898818627,-147.7786041798741,0.19329389929771423,0.7248886823654175,0.7705957293510437,,,,,
2.580742999999984,-27.566029590605904,-4.759976030553201,-142.0933074545632,-0.16520920395851135,-0.058548152446746826,0.484441876411438,,,,,
2.590122000000008,-24.218983028606626,-4.434027946669832,-136.60370204536716,-0.37743067741394043,-0.8903049230575562,0.13140416145324707,,,,,
2.5995130000000017,-20.920269350682165,-4.453819949812777,-131.48486892954864,-0.6842390894889832,-1.6235839128494263,-0.14533448219299316,,,,,
2.608719000000008,-17.601739038884368,-4.874091523264377,-126.96949107287413,-1.1514898538589478,-2.2680165767669678,-0.23213136196136475,,,,,
2.618088,-14.2989743327797,-5.501211801253708,-123.39528146455757,-1.49301016330719,-2.90224552154541,-0.05565750598907471,,,,,
2.6274849999999788,-11.299134155162953,-6.031356359030417,-120.94256619990178,-1.8206360340118408,-3.4517345428466797,0.3365541100502014,,,,,
2.636870999999985,-9.021864442540682,-6.280282292506523,-119.8298381004415,-2.1843674182891846,-3.7122626304626465,0.7016542553901672,,,,,
2.6462459999999624,-7.79721660052603,-6.285538447197015,-120.20091223527109,-2.268150806427002,-3.5483288764953613,0.900589108467102,,,,,
2.6556380000000104,-7.696963157765462,-6.267900069959548,-121.85882543106003,-2.1375486850738525,-2.953467607498169,0.8590853214263916,,,,,
2.66501199999999,-8.444493164822164,-6.460711167633705,-124.51409862634713,-1.9525251388549805,-2.190626382827759,0.5201629996299744,,,,,
2.674400999999989,-9.529363344380652,-6.975030798579575,-127.8628272583892,-1.739643931388855,-1.3448132276535034,0,,,,,
2.683780000000013,-10.427754739609867,-7.774576512067376,-131.54259197597085,-1.5128990411758423,-0.3501492142677307,-0.36712807416915894,,,,,
2.6931730000000016,-10.686477276399481,-8.73274589513964,-135.22812493576362,-1.2342087030410767,0.576123833656311,-0.6038012504577637,,,,,
2.7025489999999763,-10.073216536421151,-9.709154917966135,-138.62748571128353,-0.9621337652206421,1.4014281034469604,-0.6523067951202393,,,,,
2.71193599999998,-8.688233928945785,-10.627700622668778,-141.64185619272033,-0.678281307220459,2.1917216777801514,-0.42696046829223633,,,,,
2.721318999999994,-6.88171747012081,-11.463042955946749,-144.2223655272098,-0.3524545431137085,2.9297730922698975,-0.11704087257385254,,,,,
2.7306939999999713,-5.164457082797361,-12.207562636881745,-146.312392853167,-0.08798850327730179,3.56058669090271,0,,,,,
2.7494590000000017,-3.7253119678135125,-13.236181420361676,-148.90118904645107,0.43056780099868774,4.519174575805664,-0.11689013242721558,,,,,
2.758847000000003,-4.352759314781375,-13.30874939681954,-149.29457856611944,0.7048110961914062,4.759634017944336,-0.24419325590133667,,,,,
2.7682269999999676,-5.7376496623851985,-12.994123166179778,-148.98230745050878,0.9317102432250977,4.7360968589782715,-0.333404004573822,,,,,
2.7776210000000106,-7.649634838511328,-12.33498240521907,-147.90724400267965,1.0815263986587524,4.416877269744873,-0.3445577621459961,,,,,
2.7869289999999864,-9.874947652520975,-11.425582206100975,-146.05523308907064,1.186118245124817,3.859330654144287,-0.35663729906082153,,,,,
2.7963909999999714,-12.231448567003131,-10.343585696391587,-143.3740593321655,1.2358945608139038,3.0588247776031494,-0.48024991154670715,,,,,
2.8057739999999853,-14.460682534506116,-9.097644061467598,-139.80828172545196,1.1731475591659546,1.9865367412567139,-0.6633386611938477,,,,,
2.8151849999999854,-16.254860693852876,-7.678089118103212,-135.4107114505561,0.8772856593132019,0.734167218208313,-0.9480034708976746,,,,,
2.8245489999999904,-17.2298150326421,-6.169499483214725,-130.32607787633808,0.4366505742073059,-0.6507681608200073,-1.2511773109436035,,,,,
2.8339239999999677,-17.074405582846502,-4.740140565051143,-124.92031723955488,-0.2829601764678955,-2.0719966888427734,-1.3613553047180176,,,,,
2.8432999999999993,-15.726439498087249,-3.595623635716195,-119.81835803405703,-1.1965818405151367,-3.294330358505249,-1.1675845384597778,,,,,
2.8526999999999703,-13.432590614331477,-2.862421643435389,-115.76601422491326,-1.9031175374984741,-4.123878002166748,-0.5849347114562988,,,,,
2.8620730000000094,-10.818210857004564,-2.445771037764005,-113.24227453050045,-2.1513216495513916,-4.557058334350586,0.2564787268638611,,,,,
2.8714610000000107,-8.712951745891072,-2.1617296632728356,-112.34549371045438,-2.1139161586761475,-4.502192497253418,0.8710355162620544,,,,,
2.8810310000000072,-7.655896802602576,-1.9175036962953682,-112.99130726557945,-1.8690721988677979,-3.9174959659576416,1.0798087120056152,,,,,
2.8904019999999946,-7.6489120468922795,-1.8295580509020364,-114.89428595194452,-1.5593661069869995,-2.9277021884918213,0.9216307997703552,,,,,
2.8997909999999933,-8.275371786492853,-2.111450343006938,-117.7709758258206,-1.2788031101226807,-1.767907738685608,0.4336039423942566,,,,,
2.909176000000002,-8.920053044801866,-2.8211588607015896,-121.28805424140558,-0.9815422892570496,-0.6469167470932007,-0.041208505630493164,,,,,
2.9277629999999704,-8.499346489974716,-5.056010938780987,-128.57907286440442,-0.2655169665813446,1.2352180480957031,-0.4837495684623718,,,,,
2.937147999999979,-7.18902225136919,-6.4580422460179525,-131.81919528789814,0,1.9377562999725342,-0.5549392700195312,,,,,
2.946515999999974,-5.246009950365704,-7.976906753449249,-134.49267999322743,0.18599089980125427,2.345839023590088,-0.4508400559425354,,,,,
2.9559039999999754,-2.9507585207591367,-9.618393888378453,-136.62701546866438,0.3192077875137329,2.6161696910858154,-0.3802475333213806,,,,,
2.965292999999974,-0.5759461323031521,-11.451685679376087,-138.4322904266675,0.31727564334869385,2.814631938934326,-0.3900511860847473,,,,,
2.9746829999999704,1.6736085461172607,-13.44442315040026,-140.0621452702258,0.24573937058448792,2.9705986976623535,-0.5520134568214417,,,,,
2.984064999999987,3.736368565871383,-15.442540697980208,-141.59104249740835,0.377401739358902,3.2738871574401855,-0.9877136945724487,,,,,
2.9934519999999907,5.391477650468067,-17.03901704939121,-142.800705506557,0.7229949235916138,3.525756597518921,-1.2422362565994263,,,,,
3.0028350000000046,6.291859893817952,-17.733904902553874,-143.19321239823788,1.1032850742340088,3.5058393478393555,-1.3105487823486328,,,,,
3.012218999999959,6.349516254785103,-17.40970634988425,-142.47255546022635,1.4114832878112793,3.3514654636383057,-1.2304010391235352,,,,,
3.021603999999968,5.707497910769942,-16.479108484032025,-140.54908244257177,1.5124199390411377,3.090299606323242,-1.2906460762023926,,,,,
3.0309799999999996,4.668281953990547,-15.434438074457317,-137.50070986983494,1.4428420066833496,2.711200714111328,-1.3852983713150024,,,,,
3.0403589999999667,3.6225603215050777,-14.482993109275627,-133.55607445902044,1.3173649311065674,2.204364538192749,-1.2981277704238892,,,,,
3.049754000000007,2.7597090267129527,-13.500925469306548,-128.82520562556797,0.9006523489952087,1.5369874238967896,-1.060054898262024,,,,,
3.0591549999999756,2.0179169586409733,-12.268885755909848,-123.55820911429149,0.37383347749710083,0.7700603604316711,-0.6542314291000366,,,,,
3.0687019999999734,1.3021335377888184,-10.704419815103408,-118.06936028033623,-0.1364532709121704,-0.136276975274086,-0.22765302658081055,,,,,
3.0780739999999582,0.5588729455560435,-8.913562353362703,-112.71161370825095,-0.43871527910232544,-1.220608115196228,0.1562395691871643,,,,,
3.0872889999999984,-0.2452942196353168,-7.08083103828959,-107.78102168586958,-0.5783287286758423,-2.4184272289276123,0.361835777759552,,,,,
3.096670999999958,-0.8705920057954889,-5.430598593166132,-103.72876119693535,-0.8378633260726929,-3.420638084411621,0.49324727058410645,,,,,
3.1060509999999795,-0.9204614885713043,-4.216071236699174,-100.74879043775866,-1.2349574565887451,-4.1019673347473145,0.6952188014984131,,,,,
3.1154409999999757,-0.2880916161600702,-3.586520295401585,-99.0298868575778,-1.6900352239608765,-4.4335856437683105,1.06352698802948,,,,,
3.124820999999997,0.7551365441362918,-3.559610102597862,-98.72385158116873,-1.7139666080474854,-4.371725559234619,1.5784119367599487,,,,,
3.1342169999999783,1.7084462717138558,-4.156021613704917,-99.71574931846838,-1.4630281925201416,-3.971311092376709,1.7102528810501099,,,,,
3.143769999999961,2.2484865962931417,-5.381069736673164,-101.77594406620258,-1.4411468505859375,-3.18007230758667,1.4049134254455566,,,,,
3.153162000000009,2.424774257880841,-7.149116781688653,-104.73492876243074,-1.4315592050552368,-2.1462345123291016,0.9064946174621582,,,,,
3.1623690000000124,2.515993572818594,-9.332397453231097,-108.51272078893906,-1.2708967924118042,-1.018096923828125,0.19295084476470947,,,,,
3.171754999999962,2.960618481900518,-11.8356243313671,-112.92436855230268,-0.9402753114700317,0.1095128208398819,-0.4772340655326843,,,,,
3.181135999999981,4.152693255138052,-14.623675823931297,-117.6836587678248,-0.6113916039466858,1.227279543876648,-0.958233118057251,,,,,
3.190515000000005,6.331117149112467,-17.68591998221572,-122.48853488635109,-0.31672897934913635,2.2324583530426025,-1.5452144145965576,,,,,
3.1998909999999796,9.6336576788647,-20.86116736420436,-127.25382034017784,-0.11893443763256073,3.138355255126953,-2.277665615081787,,,,,
3.209282999999971,14.0384621378427,-23.757843770177725,-131.8793632709486,0.2676425278186798,3.905000686645508,-2.7935619354248047,,,,,
3.2186649999999872,19.18787203756481,-26.091214482400787,-135.84479794622996,0.9295293092727661,4.024603843688965,-2.8997561931610107,,,,,
3.2280470000000037,24.237860340692155,-27.890530588233567,-138.672922645802,1.026475191116333,3.9420535564422607,-3.050246000289917,,,,,
3.2374360000000024,28.42964618768077,-29.113749590639856,-140.24839601088055,0.9733099937438965,3.700352668762207,-3.0318856239318848,,,,,
3.2468259999999987,31.14027093332366,-29.781160683773024,-140.2700691355186,0.9580425024032593,3.2658214569091797,-2.7536706924438477,,,,,
3.256198999999981,32.047375612246476,-30.011985243843842,-138.67893305789053,0.835722029209137,2.64298677444458,-2.456606149673462,,,,,
3.2655729999999608,31.135708611774323,-29.848859210143374,-135.70778922252074,0.592725396156311,2.025444507598877,-2.1951756477355957,,,,,
3.2749689999999987,28.77485672412434,-29.226374470968793,-131.85754029707863,0.33597370982170105,1.439192295074463,-1.8880701065063477,,,,,
3.2843429999999785,25.49115699189512,-28.050941095807094,-127.46210591331231,0.19196265935897827,0.9028937816619873,-1.5810798406600952,,,,,
3.2937559999999735,21.81272506651212,-26.311711094847166,-122.81951691008116,0.09574449062347412,0.3559803068637848,-1.2340871095657349,,,,,
3.3031139999999937,18.188802790239112,-24.03660788218898,-118.14282794200855,-0.11671355366706848,-0.24115975201129913,-0.8688731789588928,,,,,
3.31250399999999,15.006425492199678,-21.258390749431275,-113.59622319490293,-0.44553202390670776,-0.8513071537017822,-0.6566615104675293,,,,,
3.3218860000000063,12.754605269109504,-18.127111769596038,-109.2852664181204,-0.8437760472297668,-1.5059452056884766,-0.3352188467979431,,,,,
3.3312720000000127,11.871683899512298,-14.998106295242504,-105.3946763343758,-1.331653356552124,-2.0609192848205566,0.32742947340011597,,,,,
3.3406519999999773,12.493634505454223,-12.465693491644998,-102.30585710418458,-1.5712735652923584,-2.623657703399658,1.383483648300171,,,,,
3.3502209999999764,14.164855239712907,-11.157869379975454,-100.45282617968934,-1.4915916919708252,-2.914325475692749,2.480347156524658,,,,,
3.3596000000000004,16.05826123604657,-11.374760743365828,-100.04249425519006,-1.3303601741790771,-2.780475616455078,2.956037759780884,,,,,
3.368987000000004,17.552060927224076,-12.839296987229671,-100.88021289877129,-1.2704397439956665,-2.4156100749969482,2.6818385124206543,,,,,
3.378364999999974,18.528015283527978,-14.96915834963367,-102.62647375625019,-1.1801291704177856,-1.9422708749771118,1.9065985679626465,,,,,
3.38775899999996,19.350784188853623,-17.35326743697018,-104.99734019646348,-0.9875602722167969,-1.3959670066833496,1.1639195680618286,,,,,
3.3971349999999916,20.465574202105806,-19.91912739182856,-107.8538512551644,-0.8103909492492676,-0.8045247793197632,0.671493411064148,,,,,
3.4065289999999777,22.209477943008043,-22.80242926403325,-111.25396988066677,-0.6176439523696899,-0.29330646991729736,0.14084476232528687,,,,,
3.4159139999999866,24.842712571364324,-26.202218212557227,-115.26398899935899,-0.49716949462890625,0.19498127698898315,-0.28693336248397827,,,,,
3.425310999999965,28.41808660953575,-30.219665180713037,-119.97344219652385,-0.5194169878959656,0.61064612865448,-0.5896678566932678,,,,,
3.434484999999995,32.907568131693935,-34.736014718921744,-125.51575066404264,-0.7379082441329956,0.8240452408790588,-1.0476372241973877,,,,,
3.4438769999999863,38.41136442490314,-39.361735417874385,-132.12971150691658,-1.1697900295257568,0.9653359055519104,-1.547424554824829,,,,,
3.45326399999999,44.990121651442564,-43.47771814029043,-139.99500460911491,-1.5635398626327515,1.1449623107910156,-2.119697332382202,,,,,
3.462648999999999,52.36911777988207,-46.53628231076276,-148.640092010296,-1.1752533912658691,1.3266932964324951,-3.0622928142547607,,,,,
3.4720309999999586,59.68051915038541,-48.476372124947055,-156.78424483534326,-0.6293615698814392,1.1423299312591553,-3.9473321437835693,,,,,
3.481416999999965,65.3755226702361,-49.26983962435523,-162.6912168860956,-0.3934941589832306,0.9684391617774963,-4.249570846557617,,,,,
3.490809000000013,68.48565313895763,-49.27510050349211,-165.16435733201814,-0.07220613956451416,1.1022465229034424,-4.034206867218018,,,,,
3.50018799999998,69.12210066014515,-49.28583981220526,-164.4248082278862,-0.21653234958648682,0.8821109533309937,-3.45204758644104,,,,,
3.5095739999999864,67.8209899789914,-49.51255543463202,-161.82868610432413,-0.4113794267177582,0.575812578201294,-3.0781960487365723,,,,,
3.518952000000013,65.1570175475508,-49.83710473776017,-158.2917134523215,-0.38771721720695496,0.26212960481643677,-2.850057601928711,,,,,
3.52833499999997,61.316314652267586,-49.97328018886612,-154.0241237545394,-0.23430794477462769,0.13044577836990356,-2.5793638229370117,,,,,
3.5377149999999915,56.36464861041779,-49.58294026427294,-148.70767639572617,0,0.10557800531387329,-2.3064939975738525,,,,,
3.547087999999974,50.488566788949726,-48.38842726899598,-142.35572320932957,0.17807668447494507,0.08936899900436401,-1.861382246017456,,,,,
3.556487000000004,43.85163393949502,-46.26180653251528,-135.24288568043423,0.30644601583480835,0.09833136200904846,-1.3445219993591309,,,,,
3.5660499999999615,36.653554891924074,-43.14526521973092,-127.72505771807889,0.3353416919708252,0.11148229241371155,-0.9188998937606812,,,,,
3.5754440000000045,29.264169961041347,-38.93771254506943,-120.09322769340814,0.17233657836914062,0.1080130934715271,-0.6722193360328674,,,,,
3.584809000000007,22.39252040245873,-33.55918495242993,-112.71300632593424,-0.36735475063323975,0,-0.7372987270355225,,,,,
3.5940289999999777,17.086199795739336,-27.259703702814672,-105.96350418722561,-1.0219056606292725,-0.11429013311862946,-0.5856990814208984,,,,,
3.6034080000000017,13.877342222340927,-20.89512697803796,-100.04611462997032,-1.1638083457946777,-0.5307775735855103,0.057076990604400635,,,,,
3.6129649999999742,12.69943271797202,-15.570670147927695,-94.94376394400643,-1.2700450420379639,-1.3212354183197021,1.1391446590423584,,,,,
3.622355999999968,13.24968174542365,-12.30312114382247,-90.92447571859188,-1.21787428855896,-2.034165859222412,2.604297399520874,,,,,
3.6317319999999995,14.51049757564012,-11.611557318559637,-88.47276065001923,-1.5008182525634766,-2.2540361881256104,3.615729808807373,,,,,
3.641116000000011,15.551398552304258,-13.080568395839938,-87.99009083683829,-1.861851692199707,-2.1148128509521484,3.4023661613464355,,,,,
3.650498999999968,16.258069408060447,-15.740843019163167,-89.08210974214091,-1.643784999847412,-1.7881197929382324,2.5268824100494385,,,,,
3.6598849999999743,16.747881141180358,-18.84718451835892,-91.08733697427057,-1.301971197128296,-1.3719292879104614,1.8231430053710938,,,,,
3.669277999999963,17.084996758414988,-22.109859528781726,-93.62569381882184,-0.9956534504890442,-1.020776391029358,1.1457197666168213,,,,,
3.678654999999992,17.501534743400295,-25.553496949974033,-96.67725128201297,-0.9596110582351685,-0.6497573852539062,0.44839441776275635,,,,,
3.687868999999978,18.349852131862463,-29.2482973666803,-100.51004100481805,-1.0515004396438599,-0.14170114696025848,-0.1512911319732666,,,,,
3.697254999999984,19.96079641111659,-33.21780164505437,-105.34571221875427,-0.996291995048523,0.3573470711708069,-0.6848355531692505,,,,,
3.7066279999999665,22.69615498330095,-37.50906120074032,-111.27923226349658,-0.8855794668197632,0.789487361907959,-1.3252416849136353,,,,,
3.716013999999973,26.985896462527787,-42.113716566647874,-118.39353397143678,-1.004880428314209,1.1900943517684937,-1.8864173889160156,,,,,
3.725387000000012,33.339780222719305,-46.76407353100242,-127.00331819582767,-1.258991003036499,1.5379438400268555,-2.814879894256592,,,,,
3.7347780000000057,42.35966732556531,-50.80182411150641,-137.33759958727666,-0.9247761368751526,1.7255134582519531,-4.496429920196533,,,,,
3.7441609999999628,53.67896797179674,-53.47232970512502,-148.18227123495225,-0.17599689960479736,1.5434337854385376,-5.708600044250488,,,,,
3.7535419999999817,64.12390455142646,-54.297480978232166,-156.45800039056454,0.07171475887298584,0.9721128940582275,-4.601311683654785,,,,,
3.7629249999999956,69.53495135757453,-53.94206577982478,-159.30582138199637,-0.11911779642105103,0.5675262808799744,-3.2597079277038574,,,,,
3.7723080000000095,68.44829896147664,-53.366656415742334,-156.86906164071084,-0.24785393476486206,0.2014210820198059,-2.7750961780548096,,,,,
3.7817000000000007,62.11911821691005,-52.65721952224152,-151.13853374462042,-0.15183234214782715,0.21095401048660278,-2.699265956878662,,,,,
3.791093999999987,52.55149161835034,-51.391753977188316,-143.5766115359433,0,0.435714989900589,-2.691080093383789,,,,,
3.8004809999999907,41.77661464662223,-49.03126485391692,-134.95852317225217,0.12236064672470093,0.5130809545516968,-2.6100454330444336,,,,,
3.809859999999958,31.664803359298197,-45.23160768882467,-126.44483237115752,0.05425262451171875,0.42013704776763916,-2.2917938232421875,,,,,
3.819231000000002,23.120872985262118,-40.07919473489486,-118.9415877374686,-0.06629419326782227,0.3112536072731018,-1.6745765209197998,,,,,
3.8286089999999717,15.92084794397903,-33.841174446480345,-112.4371786206596,-0.2399335503578186,0.24064397811889648,-1.0917710065841675,,,,,
3.837996999999973,9.753368968740125,-26.635664629363728,-106.6196573642712,-0.6832850575447083,0.17089559137821198,-0.6230488419532776,,,,,
3.847397000000001,4.550591051445667,-18.53083654662389,-101.45839886914263,-1.223541259765625,-0.1594054102897644,-0.26660048961639404,,,,,
3.856952999999976,0.1676114084667515,-9.859617490795012,-97.03228378230874,-1.4051417112350464,-1.024510145187378,0.589549720287323,,,,,
3.8663290000000075,-4.082890266362888,-1.3024111484255703,-93.56350076680573,-1.251757264137268,-2.214611053466797,1.4696354866027832,,,,,
3.875720000000001,-8.706822114554724,5.925248459613017,-91.59721175281356,-1.4417777061462402,-2.9950790405273438,1.6493208408355713,,,,,
3.885107000000005,-13.283095726968927,10.50168484995326,-91.77173718801522,-1.9881165027618408,-2.921199083328247,1.0406830310821533,,,,,
3.8944909999999595,-16.625409001732784,11.906921309140436,-93.58555741381153,-1.8901267051696777,-2.1466240882873535,0.18091583251953125,,,,,
3.903878999999961,-17.634552816725808,10.726985120278817,-96.07635597736743,-1.2849476337432861,-1.5003868341445923,-0.21362733840942383,,,,,
3.913252,-16.19971948890452,7.952491225913919,-98.47891636025777,-0.527280867099762,-0.9873740673065186,0.20330339670181274,,,,,
3.922645999999986,-13.427668316515321,4.359197468937749,-100.51260875768976,-0.027691468596458435,-0.6973633766174316,0.6629975438117981,,,,,
3.932029,-10.638410769414769,0.24878984406678567,-102.4443364029857,0.06534215807914734,-0.314128577709198,0.8447571992874146,,,,,
3.9414089999999646,-8.398876876182186,-4.306031814845772,-104.66874530757372,0.23674872517585754,0.15516649186611176,0.6275770664215088,,,,,
3.9507899999999836,-6.5194872193627775,-9.341759572355832,-107.18568178153235,0.4584139287471771,0.673966646194458,0.17693501710891724,,,,,
3.9693869999999833,-1.7184072283483378,-21.575175657537017,-112.69965509427671,0.5738765001296997,1.4179540872573853,-1.1337465047836304,,,,,
3.9787660000000074,2.320429255544008,-29.040376310436837,-115.69463727586663,0.22925305366516113,1.5183943510055542,-1.8388266563415527,,,,,
3.988153000000011,8.260925730520485,-37.19151883827089,-119.60076306996692,-0.03278553485870361,1.5020411014556885,-2.802088499069214,,,,,
3.9975339999999733,17.232431248609707,-45.2627252876206,-125.43286873722177,0.18855851888656616,1.4245755672454834,-3.7996139526367188,,,,,
4.006912,29.96540420649873,-51.98104936041571,-133.82154336457106,0.3694896101951599,1.0465606451034546,-4.3582963943481445,,,,,
4.0163049999999885,44.595308929084865,-55.7612953336058,-143.41770842638408,0.342796266078949,0.6031739711761475,-3.6741602420806885,,,,,
4.025682999999958,55.37581542886549,-56.52814764831215,-149.9137208809436,0.4893040060997009,-0.1037132740020752,-2.444477081298828,,,,,
4.035065999999972,58.0711805895928,-55.780961438690994,-150.5682643087949,0.5360950231552124,-0.22644805908203125,-1.9051357507705688,,,,,
4.044441000000006,53.29828193546101,-54.45456184417943,-146.24941776251265,0.3963460326194763,0.04117289185523987,-1.928814172744751,,,,,
4.05383999999998,43.85686501556918,-52.457478333724865,-139.0882198633888,0.4549192786216736,0.42790094017982483,-2.114208936691284,,,,,
4.0632269999999835,32.60309644553221,-49.42362269533516,-130.9547508406405,0.3365129828453064,0.6033167839050293,-2.264753818511963,,,,,
4.0726040000000125,21.92244764976101,-45.072226959519334,-123.46265346846762,0.140638530254364,0.5559302568435669,-2.104757308959961,,,,,
4.081991999999957,12.857653869514449,-39.60339402738726,-117.45175029532002,0.09502214193344116,0.5351709127426147,-1.7664438486099243,,,,,
4.091392999999982,5.320997996792938,-33.42289644571733,-112.78947375974366,0.08236891031265259,0.6048246622085571,-1.3353813886642456,,,,,
4.100745999999958,-1.1007956522931233,-26.794937937627417,-109.15487431286458,-0.06454402208328247,0.5285724401473999,-0.8336582779884338,,,,,
4.110314999999957,-6.802215610021736,-19.83080213937899,-106.23212138224339,-0.2860497832298279,0.39982593059539795,-0.6234656572341919,,,,,
4.119706000000008,-12.028315425326106,-12.625445684717004,-103.99501558757922,-0.4969794452190399,0.040362969040870667,-0.37562787532806396,,,,,
4.12908299999998,-17.08371481292725,-5.314185312605564,-102.33239962672532,-0.5623165965080261,-0.5078154802322388,-0.16242855787277222,,,,,
4.138463000000002,-22.071515360473683,1.7048904219029282,-101.1362685018031,-0.8623125553131104,-1.1286646127700806,-0.07987022399902344,,,,,
4.1478649999999675,-26.775302735225992,7.715031757668128,-100.71402766823465,-1.26533842086792,-2.083623170852661,-0.11805188655853271,,,,,
4.1572459999999865,-30.40807220620975,11.608056762421244,-101.17662531914502,-1.871565341949463,-2.602511167526245,-0.14720839262008667,,,,,
4.166622999999959,-32.17065791501807,12.403537350850474,-102.40892977318727,-2.0856375694274902,-1.9287710189819336,-0.2857624292373657,,,,,
4.175999999999988,-31.756695702184853,10.424458091221034,-103.98579423219489,-1.6341779232025146,-1.2772401571273804,-0.553949773311615,,,,,
4.185389999999984,-29.055306027057952,6.65377947659279,-105.51403861848624,-0.844027042388916,-0.642703652381897,-0.22703278064727783,,,,,
4.19477999999998,-25.160577971595696,2.0093798338615483,-106.81521373203647,-0.29653307795524597,0,0.2768837809562683,,,,,
4.204169999999976,-21.407951639169916,-2.9815998688261063,-107.87983456489565,-0.22598697245121002,0.32742205262184143,0.33588242530822754,,,,,
4.213540999999964,-18.173714023050515,-8.182636818157585,-108.80108363983011,-0.26798826456069946,0.7223021984100342,0.2417367696762085,,,,,
4.2229449999999815,-15.307658236151335,-13.654475799619789,-109.81689477565865,-0.2743728756904602,0.984879195690155,-0.1515825390815735,,,,,
4.232130999999981,-12.309073873230101,-19.478309806684052,-111.07322310215082,-0.37468421459198,1.0130150318145752,-0.6770962476730347,,,,,
4.241545999999971,-8.718907354997542,-25.658952766959363,-112.82258834185288,-0.6013710498809814,0.9755099415779114,-1.0461562871932983,,,,,
4.250996999999984,-4.2806123390335715,-32.00161171593697,-115.55310477870825,-0.7656442523002625,0.9151020050048828,-1.2160613536834717,,,,,
4.260311999999999,0.9836309665442401,-38.085977130165524,-119.66944287105076,-0.6522198915481567,0.9010003209114075,-1.241788625717163,,,,,
4.269676000000004,6.573966302034937,-43.24672164340038,-125.15899881035715,-0.5436176061630249,1.011435627937317,-1.2696962356567383,,,,,
4.279056999999966,11.382423003964258,-46.72383250201872,-131.3494929123483,-0.1658780574798584,1.097641110420227,-1.401353120803833,,,,,
4.288444999999967,13.906595829147275,-48.10572353369998,-136.7179456749517,0.42389780282974243,1.2878952026367188,-1.5963741540908813,,,,,
4.2978200000000015,13.160009960781398,-47.459672750597505,-140.0277363385455,0.7281782627105713,1.6397135257720947,-1.631185531616211,,,,,
4.307196999999974,9.473973264565597,-45.18386333639963,-141.12619595299694,0.795135498046875,1.9140647649765015,-1.4216123819351196,,,,,
4.31658699999997,3.9465070944957126,-41.869318212901554,-140.77090433973166,0.7197096347808838,2.0752081871032715,-1.2655545473098755,,,,,
4.325955999999962,-2.2784337221234523,-38.24043705050725,-139.7282789230616,0.8426004648208618,2.2084367275238037,-1.0995619297027588,,,,,
4.335353999999995,-8.76395236744049,-34.93065580310299,-138.0956352674532,0.871166467666626,2.2177023887634277,-1.0215797424316406,,,,,
4.344742999999994,-15.49371471565482,-32.02029521531664,-135.87243047478822,0.7715232372283936,2.1887383460998535,-0.880979061126709,,,,,
4.354118999999969,-22.564467409720862,-28.95886649898202,-133.20277650437887,0.7182528972625732,2.089127540588379,-0.5952214002609253,,,,,
4.363493000000005,-30.000063941101594,-25.086160770025202,-130.5438743442527,0.73575359582901,2.066162586212158,-0.5288680791854858,,,,,
4.372887999999989,-37.63484408461323,-20.21584265714998,-128.4573857668078,0.7612281441688538,2.0806846618652344,-0.7123928666114807,,,,,
4.382280999999978,-45.24085367896553,-14.584085775186566,-127.19664517320878,0.9369688034057617,1.833991289138794,-1.101367473602295,,,,,
4.391734999999983,-52.36643412717882,-8.488336069483593,-126.64758595979883,1.0538486242294312,1.3922786712646484,-1.5067239999771118,,,,,
4.401039999999966,-58.32202860661201,-2.2532839449761823,-126.57385639699383,1.0684430599212646,0.7681246995925903,-2.0565743446350098,,,,,
4.41042699999997,-62.23449755021675,3.8155414798319605,-126.66967160542025,0.5769921541213989,-0.07406991720199585,-2.453425645828247,,,,,
4.419805999999994,-63.314803990672495,9.170047984674037,-126.56309877507232,-0.07438769936561584,-0.9228015542030334,-2.5032010078430176,,,,,
4.429197999999985,-61.026706124988024,13.197058454883797,-126.15828473069111,-0.6144763231277466,-1.2698404788970947,-2.1110494136810303,,,,,
4.438765999999987,-55.66696519851611,15.39487543169992,-125.59428393942936,-0.5067915320396423,-1.331782341003418,-1.0986251831054688,,,,,
4.448148000000003,-48.7373770531997,15.885206833062474,-125.35108233249547,0.11998948454856873,-1.477893590927124,0.3516746759414673,,,,,
4.457519999999988,-42.41552239255091,15.202363348478366,-125.74250581117872,0.5120836496353149,-1.4265196323394775,1.4755079746246338,,,,,
4.466895999999963,-38.39630164630746,13.860738876496075,-126.85940534274218,0.5650575160980225,-1.2650549411773682,1.8088936805725098,,,,,
4.476299999999981,-36.989934552813274,12.164790949459618,-128.3111429417067,0.48253899812698364,-0.7096738219261169,1.7231199741363525,,,,,
4.4856829999999945,-37.719704658372265,10.23636836826893,-129.77491773841345,0.20869651436805725,-0.17142128944396973,1.1250191926956177,,,,,
4.495059999999967,-39.34950212373279,8.223770815549742,-131.15436638802134,-0.05362516641616821,0.20931082963943481,0.4736889600753784,,,,,
4.504451999999958,-40.70340527698281,6.215296892387809,-132.33529279262416,-0.19697976112365723,0.5216717720031738,0,,,,,
4.5136569999999665,-41.06925683309994,4.044034138579994,-133.18030659157415,-0.28937721252441406,0.8861566185951233,-0.2762410044670105,,,,,
4.522962000000007,-40.1139654187693,1.503547420292078,-133.61658989460614,-0.2907172739505768,1.2777538299560547,-0.27552711963653564,,,,,
4.532420999999999,-37.84393040400317,-1.3566001073884646,-133.69784388707458,-0.1063908189535141,1.6908423900604248,-0.10309338569641113,,,,,
4.541800999999964,-34.574780253051166,-4.4268989404292585,-133.54605260309637,0.12655328214168549,2.038569927215576,0.07991659641265869,,,,,
4.551198999999997,-30.814676560788673,-7.683472275885781,-133.26815744400932,0.24132829904556274,2.380849599838257,0.2078406810760498,,,,,
4.5605789999999615,-27.0591354714823,-11.16828488268462,-132.89998055448996,0.340425580739975,2.578608989715576,0.2084658145904541,,,,,
4.569955999999991,-23.80157474403448,-14.854943043761146,-132.47610636760803,0.36509647965431213,2.6126766204833984,0.03794980049133301,,,,,
4.579331999999965,-21.393960565979214,-18.590382481065163,-132.0396049374283,0.34366127848625183,2.798431873321533,-0.4408726990222931,,,,,
4.588725000000011,-20.032048306951268,-21.798875065709645,-131.80489881995683,0.696640133857727,2.9739902019500732,-1.1892776489257812,,,,,
4.598103999999978,-19.60642546450657,-23.554612619196494,-131.67410837077534,1.2927628755569458,3.070897102355957,-1.5740597248077393,,,,,
4.607486999999992,-20.08815956830368,-23.201611508331826,-131.3041168987847,1.6588060855865479,3.1285183429718018,-1.7564947605133057,,,,,
4.616880999999978,-21.468340817499953,-20.838454469961388,-130.3891390204788,1.6638553142547607,2.907217502593994,-1.575394630432129,,,,,
4.626260000000002,-23.905331266445792,-17.142807911219215,-128.87267428489218,1.405439019203186,2.4473140239715576,-1.3274415731430054,,,,,
4.635653999999988,-27.350410738907467,-12.637325057935168,-126.94653632420433,1.2208219766616821,1.951095461845398,-1.0775130987167358,,,,,
4.645023999999978,-31.515691916299048,-7.467535192498051,-124.88842264033025,1.0497761964797974,1.259324550628662,-1.0643800497055054,,,,,
4.654428999999993,-35.828674858892995,-1.63307482536259,-122.9333779419113,0.6371334791183472,0.30305954813957214,-1.3784751892089844,,,,,
4.663796999999988,-39.307284238906334,4.582284883925506,-121.21967313537863,-0.3005056381225586,-0.9006237983703613,-1.8314682245254517,,,,,
4.673172999999963,-41.0042722188009,10.343759769664935,-119.90000095674374,-1.3478871583938599,-2.2264299392700195,-2.24055814743042,,,,,
4.6825640000000135,-39.91492945858228,14.42548915641072,-118.96757936600619,-1.9722563028335571,-2.9722142219543457,-2.1375224590301514,,,,,
4.692124999999976,-35.7342699786812,16.049372935984803,-118.35358096105445,-1.8055875301361084,-3.1328980922698975,-1.3698458671569824,,,,,
4.701513999999975,-29.391914297649144,15.510216009796773,-118.3306602494872,-1.292970895767212,-3.0172696113586426,0.10155326128005981,,,,,
4.720283999999992,-17.872717033917944,11.336852413177356,-121.23762988101181,-0.5527479648590088,-1.6039938926696777,2.920076608657837,,,,,
4.729656999999975,-16.226609272939495,8.94739635388696,-123.72778565948833,-0.4966850280761719,-0.8373364210128784,2.5136351585388184,,,,,
4.739039999999989,-17.29285712982421,6.324811888761689,-126.50771342164398,-0.44029971957206726,0.352297306060791,1.74648118019104,,,,,
4.7484249999999975,-19.92759883355533,3.3759992323273296,-129.4035025843397,-0.135824054479599,1.4982634782791138,0.5042788982391357,,,,,
4.7576290000000085,-22.35388330583016,0.13746145200406779,-132.19452857867267,0.277875155210495,2.4538354873657227,-0.7855264544487,,,,,
4.767097999999976,-23.267262369843873,-3.1436962630422274,-134.80113088566185,0.7391359210014343,3.154064655303955,-1.62830650806427,,,,,
4.776468999999963,-22.420275294948986,-6.107279023451178,-137.2276674065448,1.2280460596084595,3.770343065261841,-1.9410371780395508,,,,,
4.785789999999963,-20.264445512020664,-8.438952834079778,-139.37203877313246,1.8581929206848145,4.04627799987793,-1.7243635654449463,,,,,
4.795163000000002,-17.741214606250562,-9.915322832388586,-140.8507828999262,2.0584561824798584,4.213437557220459,-1.4735528230667114,,,,,
4.804550000000006,-15.77563264096213,-10.45735560178818,-141.41552136418974,1.992293119430542,4.143293857574463,-1.2669661045074463,,,,,
4.813936000000012,-15.002383726010247,-10.041242715545202,-140.99823869955225,1.793015718460083,3.6884610652923584,-1.1756000518798828,,,,,
4.823323999999957,-15.524775195300668,-8.653638621698603,-139.86037982261666,1.5621757507324219,3.2906949520111084,-1.099678635597229,,,,,
4.832703999999978,-17.060972288338288,-6.351899077169373,-138.171160524919,1.2438099384307861,2.894822835922241,-1.1280009746551514,,,,,
4.842099999999959,-19.124124572497802,-3.3634804940082144,-136.17563480495664,0.9444140791893005,2.392509937286377,-1.140336036682129,,,,,
4.8514749999999935,-21.18123398712608,0.029177230263364034,-134.05978699763216,0.7032292485237122,1.7408937215805054,-1.0949467420578003,,,,,
4.8608560000000125,-22.675615221929796,3.5767930753820534,-131.8322184478019,0.42838600277900696,0.9769489169120789,-0.9523816108703613,,,,,
4.870419999999967,-23.21602102491302,7.063741890985787,-129.42681337449974,0.07441695034503937,0.1245134174823761,-0.6316944360733032,,,,,
4.879813000000013,-22.7643719915578,10.326729172450886,-126.91915170702259,-0.34973156452178955,-0.7305030226707458,-0.19810402393341064,,,,,
4.889182000000005,-21.56156588101728,13.243338610216009,-124.58246959234569,-0.7369096875190735,-1.5486458539962769,0.3081210255622864,,,,,
4.898571000000004,-20.03769636913924,15.69923624512706,-122.71481151019165,-0.9491695165634155,-2.224824905395508,0.891906201839447,,,,,
4.907949999999971,-18.81350564336678,17.519841783964303,-121.49629393466591,-1.1976131200790405,-2.6063194274902344,1.3401827812194824,,,,,
4.917354999999986,-18.30532786182052,18.552336411260878,-121.09438829263598,-1.2932064533233643,-2.7188141345977783,1.5460398197174072,,,,,
4.926730999999961,-18.6203969421224,18.70445421163348,-121.58954308383636,-1.1774747371673584,-2.5787198543548584,1.5160422325134277,,,,,
4.936120999999957,-19.672897828010225,17.9695199077922,-122.90977637681453,-1.0659422874450684,-2.1427087783813477,1.2480852603912354,,,,,
4.954873999999961,-22.442427526989942,14.515524684525662,-127.18424790111808,-0.6643586754798889,-0.8440881371498108,0.4777382016181946,,,,,
4.964269000000002,-23.429370365000583,12.070986862160565,-129.59967287508147,-0.46578145027160645,-0.1023467481136322,0.15876787900924683,,,,,
4.973659999999995,-23.962852331300255,9.273191936736076,-132.03541730220894,-0.30782660841941833,0.6741149425506592,-0.06372743844985962,,,,,
4.982832999999971,-24.076678872136448,6.22968718220329,-134.45422679179188,0.025310002267360687,1.48085618019104,-0.22221368551254272,,,,,
4.992223999999965,-23.870321768331483,3.082928644091847,-136.75801992148908,0.46906906366348267,2.3036208152770996,-0.5434809923171997,,,,,
5.001613999999961,-23.513074418251968,0.05236412853809916,-138.84506009044873,0.8937098979949951,3.1786046028137207,-0.9103813767433167,,,,,
5.011007000000006,-23.118224408324156,-2.451175496947683,-140.58764148318485,1.3543760776519775,3.8770768642425537,-1.248011827468872,,,,,
5.020383999999979,-22.816267629045853,-4.023463407225442,-141.80588627968024,1.7920433282852173,4.318635940551758,-1.4467658996582031,,,,,
5.029774999999972,-22.724382153088566,-4.546840984433797,-142.38371820835115,1.9488542079925537,4.456709384918213,-1.5460636615753174,,,,,
5.039152000000001,-22.874823006899856,-4.195864528958695,-142.2788342484418,1.9522781372070312,4.452715873718262,-1.5669515132904053,,,,,
5.048528999999974,-23.24362113581381,-3.207403970411422,-141.46939543371704,1.855057716369629,4.226529598236084,-1.5469164848327637,,,,,
5.057929999999999,-23.755363747926445,-1.6826377424396426,-139.97438625488783,1.584696650505066,3.8045051097869873,-1.4960877895355225,,,,,
5.067390999999986,-24.30214974661471,0.37700770028369956,-137.93596790173004,1.215843915939331,3.208510160446167,-1.3925367593765259,,,,,
5.076776999999993,-24.75759305436839,2.9336942660165586,-135.58092519655898,0.8544280529022217,2.4995498657226562,-1.155534267425537,,,,,
5.086079999999981,-25.02304442625804,5.80353543573799,-132.9733767420952,0.5207972526550293,1.7208452224731445,-0.7985261082649231,,,,,
5.095458000000008,-25.105123584685938,8.798531705153543,-130.19755075668172,0.10684387385845184,0.7747940421104431,-0.4759277105331421,,,,,
5.105035999999984,-25.01328656009273,11.808215916378249,-127.40411690609027,-0.1362324357032776,-0.29982098937034607,-0.21164155006408691,,,,,
5.114398999999992,-24.7440532635089,14.749957618519852,-124.74967361996094,-0.5466958284378052,-1.3356812000274658,0.09822863340377808,,,,,
5.123786999999993,-24.3355154561657,17.481991507762572,-122.46266675038305,-1.0481832027435303,-2.276071548461914,0.38094741106033325,,,,,
5.133162999999968,-23.827256765302646,19.74382141019217,-120.77475438829775,-1.3865340948104858,-2.9903857707977295,0.7020721435546875,,,,,
5.1425629999999956,-23.338556608920005,21.238461325764472,-119.85388168112166,-1.5338751077651978,-3.4588608741760254,0.9122047424316406,,,,,
5.151933999999983,-23.035833433384685,21.88557662436317,-119.8508691635481,-1.5772953033447266,-3.5587077140808105,1.0319373607635498,,,,,
5.161335000000008,-23.10116959775539,21.783602626150188,-120.80568674968603,-1.441331386566162,-3.1773226261138916,1.2318230867385864,,,,,
5.170704999999998,-23.67393863995448,21.04642297775657,-122.49086346374813,-1.2017452716827393,-2.574240207672119,1.2090016603469849,,,,,
5.180092000000002,-24.747118112886366,19.73078956614993,-124.69645771635226,-1.038316249847412,-1.7795164585113525,0.9075654745101929,,,,,
5.189476000000013,-26.168496821024462,17.89098603429532,-127.24397934794796,-0.8847342729568481,-0.8217871189117432,0.5044904947280884,,,,,
5.198847999999998,-27.68186062829339,15.623165352728568,-130.0408897683126,-0.549799919128418,0.18582835793495178,0.10731542110443115,,,,,
5.208071999999959,-28.992983328959916,13.067851192720877,-132.95312676780054,-0.07792013883590698,1.2478245496749878,-0.16102075576782227,,,,,
5.217436999999961,-29.896551504335594,10.361132453172909,-135.81344339210688,0.43531912565231323,2.3268940448760986,-0.367231547832489,,,,,
5.226819999999975,-30.33880132666112,7.711441265499891,-138.3927100428978,0.9725674986839294,3.2604262828826904,-0.5326816439628601,,,,,
5.236208999999974,-30.467741003630348,5.352109052977327,-140.477247873122,1.4040437936782837,4.032104969024658,-0.6895541548728943,,,,,
5.245596999999975,-30.48110363444641,3.485638023797038,-142.03366861063347,1.9539940357208252,4.592094421386719,-0.6298673152923584,,,,,
5.254987999999969,-30.694384583152246,2.404700858891399,-142.88325606340396,2.1337692737579346,4.830027103424072,-0.7364141941070557,,,,,
5.26437999999996,-31.128416791042575,2.205488056076152,-143.0934285925426,2.2208192348480225,4.877585411071777,-0.7555818557739258,,,,,
5.273757999999987,-31.781977982590153,2.8003008502023548,-142.67312861603074,2.1628708839416504,4.669909477233887,-0.7487605214118958,,,,,
5.283138000000008,-32.63185495893448,4.0586424383535755,-141.59532120040927,1.9005331993103027,4.192760944366455,-0.6858339309692383,,,,,
5.292529999999999,-33.606518372549715,5.863646007770083,-139.9826775862331,1.5666489601135254,3.482492446899414,-0.6240298748016357,,,,,
5.3019049999999766,-34.58340959964889,8.059635362930365,-138.10382549625137,1.2018470764160156,2.6767451763153076,-0.5238341689109802,,,,,
5.31129199999998,-35.3934737936472,10.461889855944653,-136.03078550846303,0.8699047565460205,1.8322579860687256,-0.4224673807621002,,,,,
5.320671000000004,-35.76056978690866,12.877198595159706,-133.7153210543011,0.654985249042511,0.8046718835830688,-0.36869531869888306,,,,,
5.330241000000001,-35.391136392536,15.211034155069903,-131.0938263993372,0.3158099353313446,-0.29538077116012573,-0.2581546902656555,,,,,
5.3396209999999655,-34.21317694139205,17.36875797170556,-128.27424908248977,-0.18899279832839966,-1.3499739170074463,-0.049438655376434326,,,,,
5.349004999999977,-32.4821844077724,19.24891076079123,-125.52698234430387,-0.8681246042251587,-2.396099090576172,0.3301467299461365,,,,,
5.358393999999976,-30.780085314730318,20.709317840864323,-123.35303752096446,-1.335586428642273,-3.296978712081909,0.7728565335273743,,,,,
5.367771000000005,-29.737126984126714,21.619092550576635,-122.1417644048987,-1.5555070638656616,-3.8149728775024414,1.032286524772644,,,,,
5.3771600000000035,-29.687776142317038,21.873766676279807,-122.054922519567,-1.6135984659194946,-3.7332801818847656,0.9664643406867981,,,,,
5.386538999999971,-30.520284274306476,21.426099498339767,-123.0813060740626,-1.563032627105713,-3.1311352252960205,0.6750161647796631,,,,,
5.395920999999987,-31.81683649010896,20.257443917035328,-124.95088026617687,-1.2729464769363403,-2.1898937225341797,0.37011587619781494,,,,,
5.405307999999991,-33.12684735426742,18.409072214974785,-127.39963003709455,-0.886389970779419,-1.0479533672332764,0.07622790336608887,,,,,
5.4147159999999985,-34.08390887492316,15.93443657055228,-130.14348497595037,-0.5028479099273682,0.20044395327568054,-0.20811223983764648,,,,,
5.423901000000001,-34.460599363663604,13.005229837300615,-132.97350843417502,0,1.4245996475219727,-0.40101173520088196,,,,,
5.4332769999999755,-34.280965752930044,9.92860415756365,-135.70201168422764,0.6240642070770264,2.5814781188964844,-0.3739798665046692,,,,,
5.442647999999963,-33.89656039852218,7.086768391505617,-138.1582137889172,1.2791998386383057,3.606604814529419,-0.2561619281768799,,,,,
5.452044999999998,-33.58276056112277,4.774394469200322,-140.13627791711477,1.7968441247940063,4.26855993270874,-0.3046223521232605,,,,,
5.4614219999999705,-33.53403706484539,3.025554318756143,-141.4252153269913,2.133613109588623,4.708688259124756,-0.2804691791534424,,,,,
5.470802999999989,-33.83452462962934,1.759604830687489,-141.9595188525856,2.30063796043396,4.8504438400268555,-0.4276586174964905,,,,,
5.4802119999999945,-34.26983890794997,1.027891806088142,-141.73862880178433,2.208570957183838,4.776390552520752,-0.43976712226867676,,,,,
5.4895930000000135,-34.71839248668065,0.9201374765462974,-140.7328908251883,1.994654655456543,4.4261322021484375,-0.4763525724411011,,,,,
5.498957999999959,-35.18215887801663,1.387511339272289,-139.03975188561904,1.7463661432266235,3.8441429138183594,-0.49890998005867004,,,,,
5.5083569999999895,-35.755585945901366,2.4886072357586793,-136.7855552888888,1.4964405298233032,3.0837996006011963,-0.39863699674606323,,,,,
5.5177380000000085,-36.53579685123877,4.342195854582855,-134.145622591978,1.056836724281311,2.1283743381500244,-0.26096421480178833,,,,,
5.5271359999999845,-37.589867395187945,6.873540569402638,-131.4824938089988,0.5932819247245789,1.2017109394073486,-0.16572391986846924,,,,,
5.5366750000000025,-38.88459112265803,9.748230510186966,-128.98510505882965,0.2549624443054199,0.20388805866241455,-0.1208183765411377,,,,,
5.546064999999999,-40.155313192800456,12.54877003976662,-126.69336561420191,-0.10603030025959015,-0.6464208960533142,-0.1609310507774353,,,,,
5.555459999999982,-41.03367002110827,14.808967118247928,-124.75940572039501,-0.47640395164489746,-1.2726540565490723,-0.17953777313232422,,,,,
5.564842999999996,-41.48396587164249,16.289683419439033,-123.3543788390907,-0.6845272779464722,-1.6751072406768799,-0.2940214276313782,,,,,
5.574219999999968,-41.580416015737754,16.96209422137525,-122.53717115726239,-0.7147622108459473,-1.8410701751708984,-0.22968241572380066,,,,,
5.583602999999982,-41.69386072784871,17.05992580388748,-122.41781432676993,-0.650909423828125,-1.8882989883422852,-0.053103089332580566,,,,,
5.592992999999979,-42.24572309254367,16.8757784892997,-123.03738250836483,-0.5097794532775879,-1.8293383121490479,0.12755221128463745,,,,,
5.60237699999999,-43.53199058129462,16.55917610825207,-124.33033124870124,-0.4799356162548065,-1.6912360191345215,0.13711637258529663,,,,,
5.611745999999982,-45.530803645618846,16.131864884666875,-126.19230211713555,-0.4785521626472473,-1.5165739059448242,0.03758341073989868,,,,,
5.621127000000001,-48.004407975812455,15.535283188766,-128.4131285568378,-0.44904130697250366,-1.236689567565918,-0.0761117935180664,,,,,
5.630513000000008,-50.6390097475183,14.711081893302191,-130.8336048343214,-0.44023603200912476,-0.8347656726837158,-0.12688079476356506,,,,,
5.639901000000009,-53.16734734047715,13.655113291354986,-133.317315365785,-0.5635119676589966,-0.5229993462562561,-0.22898176312446594,,,,,
5.649280999999974,-55.496200447029615,12.376049406462052,-135.86463371360125,-0.6155178546905518,-0.1998552680015564,-0.17680826783180237,,,,,
5.658668999999975,-57.739116432798824,10.985387404561683,-138.54245998355182,-0.66441810131073,0.17840546369552612,0,,,,,
5.668056999999976,-60.06479348721611,9.53940766636774,-141.49452864605922,-0.6931546926498413,0.4976333975791931,0.24158519506454468,,,,,
5.677163000000007,-62.61826688984088,8.047858159584937,-144.79685005494156,-0.6149362921714783,0.8289514780044556,0.5642857551574707,,,,,
5.686640000000011,-65.52653981288859,6.50811429017461,-148.4076762770201,-0.4746965169906616,1.2134346961975098,0.9718748331069946,,,,,
5.696025999999961,-68.81305284496506,4.935222967986565,-152.16781235820747,-0.2743588984012604,1.6192240715026855,1.314008355140686,,,,,
5.70541099999997,-72.37549391753828,3.3520315113600176,-155.8628305965911,-0.07255759835243225,2.037229537963867,1.5923970937728882,,,,,
5.7147959999999784,-76.00486886170309,1.797796519202334,-159.29896077935354,0.3075801730155945,2.417245626449585,1.8674118518829346,,,,,
5.724189999999965,-79.45307469658916,0.45386362409396513,-162.33079952895184,0.6991732716560364,2.6217777729034424,2.1137332916259766,,,,,
5.733558999999957,-82.49250574947182,-0.5339483915250235,-164.86783387713922,0.9491129517555237,2.7569682598114014,2.4179258346557617,,,,,
5.742945999999961,-85.00100033543134,-1.0840592840247432,-166.8763744844159,1.0598047971725464,2.835045576095581,2.8135452270507812,,,,,
5.752319,-86.98636009330689,-1.1748911879914954,-168.32149540078336,1.1133637428283691,2.771066904067993,3.1640853881835938,,,,,
5.761718999999971,-88.51483337093201,-0.9043613361018632,-169.09694223977897,1.1029566526412964,2.6909475326538086,3.3976452350616455,,,,,
5.771101999999985,-89.64530616452464,-0.39279325652548064,-169.09191810269652,1.1026124954223633,2.641101360321045,3.51545786857605,,,,,
5.780481000000009,-90.45104393034886,0.33038020262833895,-168.24177328386918,1.1952661275863647,2.489816427230835,3.39165997505188,,,,,
5.78988099999998,-90.98440891748214,1.3205031848028077,-166.60173453927936,1.2681770324707031,2.2964468002319336,2.9766478538513184,,,,,
5.799244999999985,-91.19024528004975,2.6275133680280636,-164.4228014139441,1.2231425046920776,2.1272332668304443,2.381690502166748,,,,,
5.808625000000006,-90.92544661439446,4.226483182082874,-161.8332153243926,1.198538899421692,1.991206407546997,1.7533836364746094,,,,,
5.818085999999994,-90.02221075609025,6.110608815451649,-158.93690636724745,1.2032277584075928,1.8061060905456543,1.124733567237854,,,,,
5.827473999999995,-88.33298037262833,8.283093106269213,-155.78319348267755,1.1817957162857056,1.5666974782943726,0.539972722530365,,,,,
5.836801999999977,-85.79496518009039,10.710499523236683,-152.47165326477864,1.0693700313568115,1.279809594154358,0.04457983374595642,,,,,
5.846168999999975,-82.45178067469197,13.302322191441373,-149.14056141401437,0.8571683168411255,0.9364324808120728,-0.18420374393463135,,,,,
5.855750999999998,-78.57271294095149,15.940532592140356,-145.9101797698867,0.570610523223877,0.4808380603790283,-0.17904132604599,,,,,
5.865136000000007,-74.6160691150247,18.505257016083235,-142.89740671657339,0.16537854075431824,-0.11609542369842529,-0.23937243223190308,,,,,
5.8745139999999765,-71.0280204960564,20.817747286886835,-140.24634909719518,-0.314384788274765,-0.720116913318634,-0.352440744638443,,,,,
5.883883999999966,-68.19808789201194,22.73398923682505,-138.15651140656715,-0.6959320902824402,-1.2564573287963867,-0.45966774225234985,,,,,
5.893273999999963,-66.31514153663493,24.231925070543642,-136.79155574795996,-1.0186781883239746,-1.7369227409362793,-0.7023032903671265,,,,,
5.902668000000006,-65.26688604505222,25.283677543380747,-136.26675595645386,-1.322869062423706,-2.0655062198638916,-1.0207669734954834,,,,,
5.912035000000003,-64.70496477402789,25.852854916478133,-136.6118673818283,-1.540827989578247,-2.171220064163208,-1.2087512016296387,,,,,
5.921424000000002,-64.23572891920452,25.904055348187853,-137.67200580800935,-1.6566559076309204,-2.0454277992248535,-1.1159238815307617,,,,,
5.930805999999961,-63.598444898052456,25.451339806047873,-139.27003304505368,-1.646941065788269,-1.7551801204681396,-0.7431085705757141,,,,,
5.940189999999973,-62.82823370113541,24.507267138498623,-141.18462594937813,-1.629180669784546,-1.3662561178207397,-0.32158148288726807,,,,,
5.949568999999997,-62.1688259101518,23.078042365769264,-143.32807692739232,-1.5690447092056274,-0.8324688673019409,0.09557968378067017,,,,,
5.958956000000001,-61.899256663742385,21.266073785437555,-145.70975739567052,-1.4082536697387695,-0.24422723054885864,0.4660435914993286,,,,,
5.968332999999973,-62.187110380519336,19.21558033639659,-148.33806173834043,-1.152445673942566,0.32572609186172485,0.7676944136619568,,,,,
5.977719999999977,-63.03557049216463,17.02986107507449,-151.10675473771983,-0.8085469007492065,0.8790460824966431,0.9784700870513916,,,,,
5.986924999999985,-64.31216323215354,14.777629113652804,-153.95248081496212,-0.474492609500885,1.4581799507141113,1.0797590017318726,,,,,
5.996314999999981,-65.79605533383436,12.503954519105628,-156.7480077765281,-0.20048977434635162,2.1170449256896973,1.2245314121246338,,,,,
6.00569999999999,-67.28547632243584,10.277823436777773,-159.4233053077574,0.19037672877311707,2.7556936740875244,1.5242286920547485,,,,,
6.0150749999999675,-68.70340346881375,8.263861338993939,-161.93408276946064,0.6351474523544312,3.3195810317993164,1.9134318828582764,,,,,
6.024454999999989,-70.07250558503034,6.64639243444054,-164.17248854664186,1.0009729862213135,3.757373094558716,2.262984275817871,,,,,
6.0338559999999575,-71.45441903677579,5.537472089452949,-165.96502257706328,1.221824288368225,4.120281219482422,2.529437780380249,,,,,
6.043315000000007,-72.83022823692934,4.977507464805906,-167.15583368116887,1.3514163494110107,4.301949977874756,2.636589527130127,,,,,
6.052683999999999,-74.13241202132345,4.9408455399154825,-167.63569279338483,1.3990907669067383,4.361632823944092,2.622413158416748,,,,,
6.06207999999998,-75.25379906712497,5.3830690643925285,-167.46961977170704,1.4138537645339966,4.25313663482666,2.523301124572754,,,,,
6.071459000000004,-76.11588013482981,6.329773646937879,-166.71284906525136,1.4385863542556763,3.957767963409424,2.262012004852295,,,,,
6.080846000000008,-76.62576318071275,7.801221371735303,-165.44336059166184,1.3925800323486328,3.5951709747314453,1.904606580734253,,,,,
6.099607999999989,-76.0512043116496,12.252335583918539,-161.56815021885367,1.1067206859588623,2.5724689960479736,1.2682042121887207,,,,,
6.108922000000007,-74.8428516357679,15.09343195461153,-159.0792732104192,0.8943047523498535,1.9974620342254639,1.0993088483810425,,,,,
6.118303999999966,-73.15297581111392,18.1766341652139,-156.36665387579106,0.5940102934837341,1.3831703662872314,0.9253650307655334,,,,,
6.137245000000007,-68.96066044117138,24.45288040503818,-150.6750041770787,0.09601113200187683,-0.02829664945602417,0.5918498039245605,,,,,
6.1466330000000085,-66.68081850090817,27.30395695927234,-147.76731031163388,-0.10346683859825134,-0.7363280653953552,0.34071916341781616,,,,,
6.156025999999997,-64.29264480909477,29.795694511814688,-144.86156873872528,-0.29706907272338867,-1.503395676612854,0.1728094518184662,,,,,
6.165398999999979,-61.87595469534262,31.87733379923089,-142.05664812033027,-0.5540395379066467,-2.324507236480713,0,,,,,
6.174797000000012,-59.60124739256432,33.44018876413377,-139.5624088118809,-0.8851197361946106,-3.0298047065734863,-0.19118545949459076,,,,,
6.184180999999967,-57.660376050173056,34.36993822484605,-137.65209514023235,-1.2149600982666016,-3.467698335647583,-0.31978946924209595,,,,,
6.193558999999993,-56.281883101241306,34.55399483948021,-136.61738562531096,-1.417271375656128,-3.5991063117980957,-0.3700774312019348,,,,,
6.2029529999999795,-55.64006502771593,33.95643866837904,-136.65485064163036,-1.487623691558838,-3.3910484313964844,-0.35224366188049316,,,,,
6.212326999999959,-55.74414478173658,32.63154553071821,-137.67694917712257,-1.4339954853057861,-2.876335859298706,-0.27664774656295776,,,,,
6.221692999999959,-56.48318156845056,30.655025296637568,-139.53803572293594,-1.2652339935302734,-2.1151394844055176,-0.18905109167099,,,,,
6.231077999999968,-57.63681268304003,28.156245861714755,-141.90111415920362,-1.0328720808029175,-1.18507981300354,-0.10301589965820312,,,,,
6.2404750000000035,-58.932027021424574,25.306133319933636,-144.46389098654888,-0.7659508585929871,-0.22579902410507202,-0.06686335802078247,,,,,
6.249877999999967,-60.14155312517415,22.268685507951965,-147.01798048647234,-0.5201908946037292,0.6888701915740967,0,,,,,
6.25908899999996,-61.168286248600566,19.225577923978328,-149.48370228682236,-0.269244909286499,1.5230696201324463,0.18661701679229736,,,,,
6.268453999999963,-61.94689123860571,16.348372679013845,-151.81187721686803,-0.03694409132003784,2.271301031112671,0.40491804480552673,,,,,
6.277913000000012,-62.44791766583204,13.714217153208072,-153.9394509729926,0.2390303909778595,2.9721570014953613,0.6654656529426575,,,,,
6.2872879999999896,-62.66704195990427,11.372764732636723,-155.78558496442108,0.541718602180481,3.5780892372131348,0.8359761238098145,,,,,
6.296657999999979,-62.59432402410902,9.371067385968752,-157.2767535312261,0.8718911409378052,4.108188629150391,0.9800841808319092,,,,,
6.306073999999967,-62.27367585935672,7.809885773676734,-158.33698627474706,1.2216860055923462,4.511591911315918,1.1082278490066528,,,,,
6.3154480000000035,-61.75687077261172,6.816718989653149,-158.87621173603347,1.4655731916427612,4.7589545249938965,1.118080496788025,,,,,
6.334212999999977,-59.98603068900402,6.5565625097043325,-158.03734821977704,1.6672435998916626,4.890386581420898,0.763317883014679,,,,,
6.343602999999973,-58.51825876034511,7.285374930435522,-156.59698690291367,1.5854430198669434,4.718688488006592,0.5572946667671204,,,,,
6.352980000000002,-56.60134428874101,8.589762070274546,-154.60458684670155,1.4013221263885498,4.306886672973633,0.4341508746147156,,,,,
6.3623589999999695,-54.30792550292902,10.386878689089697,-152.2247438047489,1.1399452686309814,3.7490575313568115,0.3355175256729126,,,,,
6.371743999999978,-51.76003544022292,12.535495621920415,-149.6100269303814,0.8826757073402405,3.150580644607544,0.26468032598495483,,,,,
6.381059999999991,-49.099368716663406,14.875782371741769,-146.843865109727,0.6825035214424133,2.5893044471740723,0.26901698112487793,,,,,
6.39044899999999,-46.44495480076657,17.272278007940276,-144.03134224418721,0.5535999536514282,2.047206163406372,0.263852059841156,,,,,
6.3998209999999744,-43.823974644266784,19.6793969736754,-141.26020408997883,0.5077996253967285,1.6006712913513184,0.20028752088546753,,,,,
6.409221000000002,-41.11974862770857,22.08564327643949,-138.45507328041904,0.47920292615890503,1.1800942420959473,0.16643112897872925,,,,,
6.41877199999999,-38.1090815769218,24.449033992668475,-135.47196833663742,0.4334023594856262,0.6618585586547852,0.1874929666519165,,,,,
6.428159999999991,-34.598422092129574,26.70527472512167,-132.20452052448948,0.24712392687797546,0.026082605123519897,0.36338406801223755,,,,,
6.437544000000003,-30.52504377831147,28.72886467186056,-128.6376391536799,0,-0.748988151550293,0.6849588751792908,,,,,
6.446919999999977,-26.003786107359343,30.38887560802062,-124.86049800730937,-0.31202322244644165,-1.5943013429641724,1.1308410167694092,,,,,
6.456317000000013,-21.405231459036102,31.513153255697453,-121.13066693805067,-0.7583074569702148,-2.4467954635620117,1.5791831016540527,,,,,
6.46569199999999,-17.33375569910295,31.97907426508091,-117.92268586134884,-1.1369121074676514,-3.1598615646362305,1.9996956586837769,,,,,
6.47506999999996,-14.406867755831437,31.794045087465264,-115.80569868733159,-1.3594982624053955,-3.538076400756836,2.1972551345825195,,,,,
6.484460000000013,-12.959006362616309,31.023475671135056,-115.14567500281477,-1.3438925743103027,-3.455136775970459,2.126540422439575,,,,,
6.49383899999998,-12.860758048913864,29.739067496586166,-115.79974657900394,-1.1036148071289062,-2.937497615814209,1.8069874048233032,,,,,
6.503220999999996,-13.586783147330381,27.95672494293457,-117.33771323947559,-0.8534330129623413,-2.1902852058410645,1.3349759578704834,,,,,
6.512610999999993,-14.581141456296514,25.6512483431707,-119.37698027110076,-0.5877611637115479,-1.3597928285598755,0.7623870372772217,,,,,
6.5219809999999825,-15.445212307257327,22.884934686959664,-121.5813961187315,-0.33360356092453003,-0.4998222589492798,0.26122337579727173,,,,,
6.531387999999993,-15.999183535909248,19.792122329879433,-123.84402845242305,-0.07619258761405945,0.34230101108551025,-0.09879380464553833,,,,,
6.540594999999996,-16.26835104866606,16.55640649632798,-126.04289182136289,0.14368224143981934,1.0832371711730957,-0.49389249086380005,,,,,
6.549951999999962,-16.355684803227735,13.32205722627462,-128.12370233943963,0.3736516535282135,1.7755968570709229,-0.9244397282600403,,,,,
6.559361999999965,-16.371981403908567,10.23637576257226,-130.04451255347757,0.6076369881629944,2.3872528076171875,-1.3704485893249512,,,,,
6.568810999999982,-16.39188914253999,7.518358582638386,-131.75280861532812,0.8508874177932739,2.8766705989837646,-1.7985186576843262,,,,,
6.578196999999989,-16.475631388482384,5.42593505010943,-133.2337004615544,1.0934946537017822,3.2679200172424316,-2.1822078227996826,,,,,
6.587578000000008,-16.65616405303831,4.142298052245285,-134.48232103746471,1.3395695686340332,3.520585775375366,-2.4885916709899902,,,,,
6.59696299999996,-17.013321274871508,3.689815181316746,-135.50205052498956,1.5847187042236328,3.635274648666382,-2.66152286529541,,,,,
6.606356000000005,-17.579001295893857,4.079398725055157,-136.19940511764878,1.7786506414413452,3.6660144329071045,-2.700122356414795,,,,,
6.615734999999972,-18.261997924069618,5.310377514745416,-136.43893703506603,1.8210465908050537,3.5235447883605957,-2.7016260623931885,,,,,
6.625116999999989,-18.97562033131728,7.285324024784795,-136.24374135621,1.6227741241455078,3.2327277660369873,-2.598687171936035,,,,,
6.634486999999979,-19.62240409727062,9.87309471299966,-135.7047339627097,1.339493989944458,2.945549249649048,-2.455416679382324,,,,,
6.643877999999972,-20.015901097097,12.928989809610549,-134.88743850373754,1.143134593963623,2.5364344120025635,-2.192141532897949,,,,,
6.653262999999981,-20.031400779827287,16.256893988288834,-133.81532941254306,0.9489916563034058,2.05904221534729,-1.8981926441192627,,,,,
6.662646999999993,-19.64709441034444,19.69787429352784,-132.49024375292524,0.7879713177680969,1.5387459993362427,-1.538883924484253,,,,,
6.6720320000000015,-18.92613243953993,23.1560492089707,-130.9099263235739,0.6325995922088623,1.0106977224349976,-1.1474030017852783,,,,,
6.681339999999977,-17.992873301614544,26.547840673260744,-129.1532715781918,0.46451154351234436,0.505200207233429,-0.7478458881378174,,,,,
6.690901999999994,-17.022135476671526,29.86055640683794,-127.33953746862817,0.3363613486289978,-0.035995811223983765,-0.32538849115371704,,,,,
6.700275999999974,-16.185086753061636,33.18775124872485,-125.64893778795224,0.1384388506412506,-0.6060871481895447,0.15740209817886353,,,,,
6.709673000000009,-15.650243850293077,36.59870611632556,-124.08766935820746,-0.07552701234817505,-1.2415692806243896,0.6345674395561218,,,,,
6.719060000000013,-15.496748388927305,40.05123005581816,-122.7794054500647,-0.36644554138183594,-1.8858274221420288,1.0428249835968018,,,,,
6.728436999999985,-15.70746375809861,43.256405029260975,-121.9223250524757,-0.6147695779800415,-2.2918760776519775,1.4012047052383423,,,,,
6.737829999999974,-16.20856746009796,45.82845351681813,-121.64502220063582,-0.8460532426834106,-2.456800699234009,1.7386772632598877,,,,,
6.747212999999988,-16.969564269046625,47.51918809689763,-122.04462731587917,-1.0458946228027344,-2.5251998901367188,1.9746185541152954,,,,,
6.756598999999994,-18.0437558616416,48.287504574207965,-123.14711703551815,-1.0991251468658447,-2.463258981704712,2.0601119995117188,,,,,
6.765966999999989,-19.586058807573174,48.21866106854786,-124.89173993926467,-1.0750371217727661,-2.1392970085144043,2.078951835632324,,,,,
6.775363999999968,-21.759687085098513,47.500080228587684,-127.26660825848657,-1.009031891822815,-1.5937013626098633,1.997741937637329,,,,,
6.784739000000002,-24.6031995276172,46.28721577082234,-130.26824049703274,-0.8163412809371948,-0.9632849097251892,1.7538634538650513,,,,,
6.794123000000013,-27.977251090830965,44.62781562357533,-133.771284415446,-0.527507483959198,-0.25466188788414,1.4005882740020752,,,,,
6.803525999999977,-31.58134103398979,42.53115681097817,-137.4417456199506,-0.19899499416351318,0.5455015897750854,1.0421617031097412,,,,,
6.812713999999971,-35.09962831200049,40.08253090705877,-140.98959692472874,0.16394048929214478,1.3420101404190063,0.7018618583679199,,,,,
6.822091,-38.34052351956006,37.39440341881999,-144.25237798479867,0.5748443603515625,2.082986354827881,0.4160577058792114,,,,,
6.831479999999999,-41.28052927089505,34.61279532620867,-147.16698842071278,1.033577799797058,2.80876088142395,0.17524749040603638,,,,,
6.840931000000012,-43.98537782514778,31.96885445005764,-149.69577120868806,1.4581204652786255,3.4712750911712646,0,,,,,
6.8503240000000005,-46.541744464342116,29.72048767703689,-151.8262413631167,1.8250796794891357,3.9658689498901367,-0.07909148931503296,,,,,
6.859712000000002,-49.07266297854416,28.041133382860707,-153.58082277364082,2.093679904937744,4.274387359619141,-0.19048529863357544,,,,,
6.8690899999999715,-51.6625785146099,26.981105498971235,-154.978048753178,2.2766194343566895,4.4170684814453125,-0.2809627950191498,,,,,
6.878479999999968,-54.320130366120026,26.523607704336044,-156.08602568748498,2.346837282180786,4.396554946899414,-0.33862656354904175,,,,,
6.887864999999977,-56.982158094723914,26.632438100446915,-156.97506804663035,2.35122013092041,4.162607669830322,-0.3358088731765747,,,,,
6.897244000000001,-59.56064145906196,27.352983121604186,-157.592113512479,2.2977657318115234,3.8479766845703125,-0.3394520878791809,,,,,
6.906638999999984,-61.9371667368184,28.687540385277135,-157.91623889484552,2.1231274604797363,3.4278576374053955,-0.4349000155925751,,,,,
6.9160119999999665,-63.977354574535724,30.56691068077505,-158.0141739049959,1.8837265968322754,2.9370481967926025,-0.5722299218177795,,,,,
6.925401999999963,-65.50518882056953,32.90620255817873,-157.85618984363435,1.6275997161865234,2.4044113159179688,-0.6286939978599548,,,,,
6.934789999999964,-66.37831435301237,35.58048049488339,-157.46997151893834,1.3265321254730225,1.8575496673583984,-0.4964444637298584,,,,,
6.944164999999998,-66.54442044872006,38.48740986649006,-156.89069422955234,1.05934476852417,1.2592582702636719,-0.24861334264278412,,,,,
6.9534889999999905,-66.05189033836601,41.62157115667508,-156.1445208081308,0.7566817402839661,0.6302467584609985,0.10208812355995178,,,,,
6.963063999999974,-65.05686979885502,44.92289423273139,-155.27406175052778,0.32551249861717224,-0.03972029685974121,0.5107436180114746,,,,,
6.972411999999963,-63.775164329907696,48.25987777966482,-154.32485833251286,-0.19591403007507324,-0.754045844078064,0.9048196077346802,,,,,
6.981804000000011,-62.3081526645137,51.45807344601283,-153.23412590956298,-0.7799379229545593,-1.5249640941619873,1.3445056676864624,,,,,
6.991196000000002,-60.806400124504385,54.176170289801576,-152.10092380601546,-1.3573658466339111,-2.145965576171875,1.7377593517303467,,,,,
7.000567999999987,-59.54008958610064,56.02996746673647,-151.1483637868371,-1.8190484046936035,-2.5544486045837402,2.02351713180542,,,,,
7.009955999999988,-58.94016325665768,56.80676385883238,-150.7753186488554,-1.995037317276001,-2.755972146987915,2.1148409843444824,,,,,
7.0193459999999845,-59.23415834585386,56.45729020473906,-151.17228944856257,-1.8161243200302124,-2.6276638507843018,1.9616572856903076,,,,,
7.028729999999996,-60.26422088690251,55.11542933023109,-152.17566632960154,-1.4852526187896729,-2.209343433380127,1.6090285778045654,,,,,
7.038108999999963,-61.681131324131876,53.03274287337655,-153.51640464709345,-1.1110548973083496,-1.6029257774353027,1.206540822982788,,,,,
7.047508999999991,-63.23040025352582,50.42333755987903,-155.07440014595474,-0.6929853558540344,-0.9203029274940491,0.9064435958862305,,,,,
7.056875999999988,-64.75912396780218,47.472106621270974,-156.68770064976977,-0.29102569818496704,-0.2018393874168396,0.8085352182388306,,,,,
7.0662699999999745,-66.18958860956963,44.32567979226256,-158.29939321585982,0,0.49637991189956665,0.7613657712936401,,,,,
7.075464000000011,-67.48267591238469,41.11063949035146,-159.79817258016365,0.218557208776474,1.1454503536224365,0.7047808170318604,,,,,
7.084866999999974,-68.702232711374,37.8812740053943,-161.12670727464592,0.4446896016597748,1.8031251430511475,0.7608091235160828,,,,,
7.0943189999999845,-69.91566295455112,34.709130025784795,-162.31690696011327,0.7294729351997375,2.4132068157196045,0.830341637134552,,,,,
7.103694999999959,-71.11956290226941,31.73387731029589,-163.38347872533956,0.9803011417388916,2.97219181060791,0.8076521754264832,,,,,
7.113071999999988,-72.29061645002572,29.088753533655368,-164.28120749497361,1.2611064910888672,3.4544806480407715,0.8453522324562073,,,,,
7.1224619999999845,-73.37671879223859,26.91804468887129,-164.95747377630107,1.5824344158172607,3.7865374088287354,0.8660947680473328,,,,,
7.131845999999996,-74.3011258729105,25.347848975467514,-165.3263085281753,1.7854835987091064,3.9756455421447754,0.7561100721359253,,,,,
7.141155999999967,-74.95721649402017,24.44151429923206,-165.30121190101966,1.8997231721878052,4.044111251831055,0.6382121443748474,,,,,
7.150610999999969,-75.26253642163957,24.234117544306173,-164.9058220095385,1.9781651496887207,4.057292461395264,0.5549249649047852,,,,,
7.1599860000000035,-75.11927890554044,24.7255361910542,-164.1672036247428,2.002318859100342,3.9744627475738525,0.43285349011421204,,,,,
7.169371000000012,-74.42771050497323,25.918282453635356,-163.1461449184771,1.9618436098098755,3.823438882827759,0.25972098112106323,,,,,
7.1787649999999985,-73.09657502929919,27.791896955719984,-161.7215453644305,1.8514484167099,3.604358673095703,0.14098605513572693,,,,,
7.18814900000001,-71.07677390004912,30.282091897635286,-159.84852628797339,1.709128499031067,3.2849416732788086,0.07374638319015503,,,,,
7.197527999999977,-68.33438700410608,33.28199289324749,-157.52639701112273,1.5452547073364258,2.904357433319092,0.03393879532814026,,,,,
7.206914999999981,-64.87495224857024,36.64223474685604,-154.72334207467316,1.3397949934005737,2.519127368927002,0.11705565452575684,,,,,
7.216300999999987,-60.787067127933845,40.24483819548112,-151.4318278640383,1.0081496238708496,2.0428571701049805,0.31042423844337463,,,,,
7.225610999999958,-56.28328709285077,43.9596974349619,-147.7052875671737,0.6290025115013123,1.4930078983306885,0.573013961315155,,,,,
7.23498699999999,-51.62833742307172,47.65562958727448,-143.72906809393555,0.25964778661727905,0.8914074897766113,0.9492383003234863,,,,,
7.244552999999996,-47.069438173010994,51.227372410227694,-139.56763825978143,-0.08705282211303711,0.3111385405063629,1.3893113136291504,,,,,
7.25393600000001,-42.70973503386882,54.549543302995396,-135.21529557148034,-0.5056688189506531,-0.29760295152664185,1.7227215766906738,,,,,
7.26331799999997,-38.50511613680682,57.39015189673261,-130.67232640842985,-0.7787783741950989,-1.0194106101989746,1.951898455619812,,,,,
7.272717,-34.32339950771391,59.52388828032226,-125.96032252947803,-1.0699095726013184,-1.6613832712173462,1.989656925201416,,,,,
7.28209499999997,-29.954316462167235,60.815092563495696,-121.1262802234772,-1.376631736755371,-2.2148208618164062,1.913069725036621,,,,,
7.291473999999994,-25.481366211723625,61.1210858165156,-116.57835830621502,-1.553379774093628,-2.608469247817993,1.8144276142120361,,,,,
7.30086399999999,-21.451956997259696,60.35864678613105,-112.98726481229926,-1.6052677631378174,-2.743709087371826,1.6859123706817627,,,,,
7.310245000000009,-18.30185685254564,58.64991203418,-110.8468074572219,-1.494741678237915,-2.572108030319214,1.5563801527023315,,,,,
7.319618999999989,-16.192077774006503,56.22572350066594,-110.11316465736877,-1.2039717435836792,-2.1854240894317627,1.4669265747070312,,,,,
7.329016999999965,-15.112774744479495,53.32988188860869,-110.50831304951335,-0.8344227075576782,-1.6813721656799316,1.467432975769043,,,,,
7.338395999999989,-15.010901212343873,50.09934619458156,-111.64065047838432,-0.5684999227523804,-1.1070524454116821,1.3177881240844727,,,,,
7.347782999999993,-15.73290022113835,46.5817038347096,-113.20751478303771,-0.37603849172592163,-0.5107392072677612,0.8917320370674133,,,,,
7.3571660000000065,-16.985239921983972,42.78890890626185,-115.00059914669697,-0.11028635501861572,0.07700727880001068,0.37638384103775024,,,,,
7.366554000000008,-18.36946414884408,38.72339263040366,-116.85967197235982,0.26077958941459656,0.7055625319480896,-0.15165001153945923,,,,,
7.375767999999994,-19.355619857738038,34.38791731622966,-118.57565827213689,0.7146074771881104,1.2704907655715942,-0.6500034332275391,,,,,
7.385208999999975,-19.516646490990784,29.745719098430026,-119.90694050215758,1.0580823421478271,1.7909042835235596,-1.296836018562317,,,,,
7.394594999999981,-18.573861541857426,24.725341847470467,-120.81524854850615,1.385239839553833,2.284268856048584,-2.0717408657073975,,,,,
7.403988999999967,-16.37631576333026,19.460621397027754,-121.29914380716198,1.6966300010681152,2.6148250102996826,-2.7790274620056152,,,,,
7.413363000000004,-13.102436705890359,14.096664703085706,-121.54688726994816,1.9674179553985596,2.525177478790283,-3.3553566932678223,,,,,
7.4227449999999635,-8.881723106122083,9.02382339009519,-121.62907098654998,2.2125446796417236,2.7635278701782227,-4.037736892700195,,,,,
7.432132999999965,-3.868820655564964,4.793349116344692,-121.18911159249048,2.0563018321990967,2.4874720573425293,-4.06692361831665,,,,,
7.441512999999986,1.1161766366435526,1.8130988363782286,-120.28244596137023,1.7086511850357056,1.636557936668396,-3.6730616092681885,,,,,
7.450885999999969,5.067475368660765,0.24146514109885636,-118.97340406540043,1.2974143028259277,0.8110560774803162,-3.4458425045013428,,,,,
7.460280000000012,7.446021903349694,0.11198435871236423,-117.28247543595005,0.8349704742431641,0.23055246472358704,-3.322253704071045,,,,,
7.469661999999971,8.264455051034611,1.4053255336982982,-115.44006092333012,0.5813330411911011,-0.2003067135810852,-3.207765579223633,,,,,
7.47905499999996,7.935076717627815,4.046714347718015,-113.72437379722372,0.5363655686378479,-0.3809744119644165,-3.00681209564209,,,,,
7.488430999999991,7.004531774507217,7.844209083166409,-112.26180050727368,0.5166316032409668,-0.3094184696674347,-2.5760812759399414,,,,,
7.497837000000004,5.817996704070948,12.518396370956653,-111.05574615320043,0.4817364811897278,-0.13824263215065002,-1.9801379442214966,,,,,
7.507200000000012,4.492260921237358,17.75852498782687,-110.11758551007657,0.5294851660728455,0.045211873948574066,-1.2636969089508057,,,,,
7.516691999999978,3.0337001228517555,23.26136441924816,-109.26636665281303,0.5457169413566589,0.1490187793970108,-0.4801778793334961,,,,,
7.526077999999984,1.4096858235469953,28.75861687607748,-108.3551853311685,0.46745529770851135,0.1121453046798706,0.28895413875579834,,,,,
7.535462999999993,-0.42664487082833824,33.99666983940087,-107.38362872424385,0.3080672025680542,-0.09923452138900757,0.8416198492050171,,,,,
7.544839999999965,-2.4070669935974913,38.72755458931812,-106.45236010001256,0.09174412488937378,-0.36568745970726013,1.081301212310791,,,,,
7.554234000000008,-4.045424217563533,42.68365046488081,-105.58655794422205,-0.12578803300857544,-0.6613521575927734,1.1628456115722656,,,,,
7.563609999999983,-4.728497839337844,45.518300953546444,-104.75297785086393,-0.3974597454071045,-0.9821678996086121,1.3918050527572632,,,,,
7.572996999999987,-4.317424663074435,46.970772690512646,-104.0503632972159,-0.681024432182312,-1.142521858215332,1.6209707260131836,,,,,
7.582367999999974,-2.9869974744928194,47.00817947499,-103.67290253580248,-0.7476790547370911,-1.2164310216903687,1.937150239944458,,,,,
7.591764000000012,-1.3338355432417928,45.827339958880785,-103.80583736890198,-0.6789268255233765,-1.182307481765747,2.211355447769165,,,,,
7.601154000000008,-0.1737517422152223,43.81326093462073,-104.55398551757897,-0.578443706035614,-1.0523797273635864,2.14027738571167,,,,,
7.610531999999978,0.057962231422052944,41.360389155140005,-105.9924400506841,-0.3618128299713135,-0.7900992631912231,1.7880064249038696,,,,,
7.619913999999994,-0.6154075890083,38.69258164583022,-107.93362928818227,-0.05171620845794678,-0.4432608187198639,1.2579079866409302,,,,,
7.629308999999978,-1.8710693662732003,35.84904374538474,-110.11899524476624,0.2643020451068878,-0.05332277715206146,0.6082400679588318,,,,,
7.638696999999979,-3.2466736967557575,32.74549667206794,-112.42704313579134,0.5653067827224731,0.4285183846950531,-0.031604647636413574,,,,,
7.647897,-4.256167615058167,29.22287772385623,-114.68097979500803,0.9591267108917236,0.8106780052185059,-0.5192052721977234,,,,,
7.657269999999983,-4.707060109709924,25.161446756499995,-116.69673841653042,1.1979169845581055,1.0910224914550781,-0.9735532999038696,,,,,
7.666735999999958,-4.622346876221257,20.49282671615335,-118.52842768939512,1.2482529878616333,1.3633196353912354,-1.6461498737335205,,,,,
7.6761169999999765,-4.003000825693111,15.380900893720497,-120.252233285054,1.2797858715057373,1.6494041681289673,-2.599559783935547,,,,,
7.6854999999999905,-2.771789806788126,10.33975508593579,-121.84648068675894,1.4285202026367188,1.807544469833374,-3.444082021713257,,,,,
7.694874999999968,-0.9217718115943305,6.158813759991022,-123.21169438938519,1.5398083925247192,1.8169583082199097,-3.8667116165161133,,,,,
7.704273000000001,1.0692935827516705,3.6075176191605376,-124.29156063078429,1.683569312095642,1.501983404159546,-3.6628127098083496,,,,,
7.71364699999998,2.376008814954182,3.0756190439920323,-124.92956695620484,1.6211097240447998,1.1666464805603027,-3.212733030319214,,,,,
7.723045000000013,2.3905323899589597,4.4293053959244695,-125.07483641030544,1.4714447259902954,1.0244500637054443,-2.8522536754608154,,,,,
7.732411000000013,0.9194582912285544,7.254418054660518,-124.89833174663445,1.4638831615447998,1.0603655576705933,-2.6552155017852783,,,,,
7.741802000000007,-1.7006833095307494,11.112313529655028,-124.57116274755498,1.5296082496643066,1.0683176517486572,-2.493375062942505,,,,,
7.751195999999993,-4.941266155804026,15.721061727876338,-124.2419804886609,1.5009576082229614,1.0662322044372559,-2.2285470962524414,,,,,
7.7605669999999805,-8.403771762133543,20.90099089450098,-124.13883243633391,1.3717930316925049,1.0542149543762207,-1.823551893234253,,,,,
7.769958999999972,-11.921419147663567,26.445719102476357,-124.3858117401897,1.255184531211853,0.9662413597106934,-1.2269182205200195,,,,,
7.779271999999992,-15.562225332658212,32.12239316855992,-124.97420603498684,1.08048415184021,0.8208657503128052,-0.5391710996627808,,,,,
7.788666999999975,-19.51836593861023,37.773746130234514,-125.86063920097047,0.8275071382522583,0.6144752502441406,0.11923342943191528,,,,,
7.798207999999988,-23.9770251854543,43.352388555084026,-127.12174883469024,0.5915655493736267,0.2247299700975418,0.6375828981399536,,,,,
7.8075979999999845,-29.07131890298629,48.770526273445306,-128.91144508294624,0.35337769985198975,-0.38491612672805786,0.9906778931617737,,,,,
7.816992999999968,-34.535044267644004,53.60734491809399,-131.35246697259473,0.14250749349594116,-1.135450839996338,1.242414951324463,,,,,
7.826362999999958,-39.3320726068433,57.10228568778664,-133.8742291484391,-0.18150091171264648,-1.52088463306427,1.2686080932617188,,,,,
7.8357429999999795,-41.225715439106814,58.619534399848845,-134.92965640736358,-0.5663541555404663,-1.3074909448623657,1.1643409729003906,,,,,
7.854520999999977,-33.91760075487219,55.877011408584714,-130.87966397762614,-0.301399290561676,-0.9550452828407288,1.3517907857894897,,,,,
7.863901999999996,-28.245537159324122,52.5945348862813,-128.33679710943883,0.043810129165649414,-0.6101986169815063,1.613295316696167,,,,,
7.873282999999958,-23.57303265681511,48.802083016232515,-126.66412942328895,0.22710442543029785,-0.20214149355888367,1.5156835317611694,,,,,
7.882663999999977,-20.49324603672448,44.73285724439576,-125.95743650407304,0.46175214648246765,0.26969122886657715,1.1877400875091553,,,,,
7.892044999999996,-18.773160690195287,40.43715436888186,-125.9171148378891,0.8791916370391846,0.6473002433776855,0.6757835149765015,,,,,
7.901264999999967,-17.83567927868862,35.88450047194389,-126.1188399865207,1.2159154415130615,0.9862542152404785,-0.03438258171081543,,,,,
7.910716999999977,-17.15079222232398,31.07506606840662,-126.36186198107019,1.3359990119934082,1.4140081405639648,-0.8828223943710327,,,,,
7.920110999999963,-16.254137058366243,26.11118376295595,-126.57455559117007,1.385369062423706,1.8895478248596191,-2.031299591064453,,,,,
7.929474999999968,-14.706585890657294,21.37683859110824,-126.77292330479895,1.6572113037109375,2.31406307220459,-3.145984172821045,,,,,
7.9388700000000085,-12.318366570881743,17.569637352304255,-126.87311990358413,2.1486997604370117,2.4801547527313232,-3.5253663063049316,,,,,
7.948250999999971,-9.316951116804516,15.294340860950207,-126.6702779175209,2.3616890907287598,2.2238175868988037,-3.2525346279144287,,,,,
7.957630999999992,-6.2588574633912755,14.564847449051285,-126.05147828691204,2.0585389137268066,1.8637806177139282,-2.851630687713623,,,,,
7.9670150000000035,-3.9159383853139165,14.999745762144087,-125.08762632514623,1.6408299207687378,1.5202056169509888,-2.568215847015381,,,,,
7.976397999999961,-2.8650355771453944,16.38049769055268,-123.97754511309667,1.3612260818481445,1.1854825019836426,-2.4163551330566406,,,,,
7.985783999999967,-3.099743418720509,18.85702546507829,-122.86130166219237,1.310186743736267,0.9976479411125183,-2.328911781311035,,,,,
7.995162999999991,-4.229501137080433,22.57689541680607,-121.7810977460174,1.273789882659912,0.8811075687408447,-2.149878978729248,,,,,
8.004554999999982,-5.842117538248168,27.379907330932085,-120.70248295948541,1.1679750680923462,0.7604087591171265,-1.7280933856964111,,,,,
8.013946999999973,-7.703825452716223,32.858048750191244,-119.6505119042264,0.9776099920272827,0.6125620603561401,-1.0779006481170654,,,,,
8.023237999999992,-9.750530306626771,38.69376579449636,-118.62466808786199,0.7086038589477539,0.40546390414237976,-0.4056653082370758,,,,,
8.032826,-11.999696635113283,44.73930633473295,-117.52290172141203,0.44011613726615906,0.03373131901025772,0.174330472946167,,,,,
8.042181999999968,-14.30795820290558,50.788139558253995,-116.31092357513144,0.1889675259590149,-0.5501446723937988,0.6620730757713318,,,,,
8.051578000000006,-16.018613368377416,56.225227539626346,-114.97541156357411,-0.04961293935775757,-1.409655213356018,1.039452314376831,,,,,
8.060957999999971,-16.339471652181217,59.91585391295081,-113.45117168644715,-0.4781762361526489,-1.8487979173660278,1.4072859287261963,,,,,
8.070334000000003,-14.716404365755528,60.958417339407255,-111.67000542586432,-0.8793627023696899,-1.538319706916809,1.530300259590149,,,,,
8.079725999999994,-11.458619079570873,59.52216760473976,-110.12950255963426,-0.6690329313278198,-1.4115502834320068,1.614964246749878,,,,,
8.089101999999968,-7.661703374001803,56.57485652497127,-109.26946707441431,-0.32366400957107544,-1.3200428485870361,1.9548231363296509,,,,,
8.098487999999975,-4.731583338868616,53.15123248318189,-109.41694608040268,-0.13820487260818481,-1.018519639968872,2.2341997623443604,,,,,
8.107873999999981,-3.5041778337354224,49.806339258496756,-110.43262959161937,0.04430961608886719,-0.6293579339981079,2.0369033813476562,,,,,
8.117269999999962,-3.9120767480448606,46.506234526951204,-112.08101031182154,0.3157713711261749,-0.18679402768611908,1.4371020793914795,,,,,
8.126648999999986,-5.45405119443327,43.0680262888599,-114.05449126987165,0.6511445045471191,0.24414020776748657,0.7709223031997681,,,,,
8.13585599999999,-7.372272815836179,39.32175970710665,-116.15172849121102,1.1753530502319336,0.6655887961387634,0.14413416385650635,,,,,
8.145232999999962,-8.964016342259596,35.160521802551244,-117.9258020098969,1.4464597702026367,1.0899643898010254,-0.5069496631622314,,,,,
8.154700999999989,-9.869011475643306,30.53565624355877,-119.22860583103858,1.4504013061523438,1.5301295518875122,-1.2916723489761353,,,,,
8.164071999999976,-9.917654396985858,25.59114581696555,-120.1103437485159,1.4738253355026245,1.9355601072311401,-2.3675501346588135,,,,,
8.17346699999996,-9.012608445710471,20.865497605411687,-120.711563485887,1.7279424667358398,2.180605888366699,-3.127178907394409,,,,,
8.182844999999986,-7.321629930056537,17.145334254408034,-121.1267295213097,2.0989317893981934,2.037907361984253,-3.2208731174468994,,,,,
8.192241999999965,-5.3823535132332605,15.038046087858602,-121.24589551840738,2.168271780014038,1.8271371126174927,-3.0030438899993896,,,,,
8.201608999999962,-3.9335255883277136,14.673731367580475,-121.05518702605916,1.8966538906097412,1.611857533454895,-2.7565534114837646,,,,,
8.210989999999981,-3.576923618529592,15.824329054718795,-120.58885250187814,1.713996171951294,1.423740029335022,-2.597224235534668,,,,,
8.220387999999957,-4.56439411954608,18.229169572699664,-119.95732925918296,1.6560378074645996,1.363173484802246,-2.401528835296631,,,,,
8.229770999999971,-6.702583786483983,21.823796350097695,-119.25426496766318,1.6364047527313232,1.3032184839248657,-2.1820030212402344,,,,,
8.239171999999996,-9.570875493798479,26.46975283637284,-118.64429957743486,1.6325404644012451,1.1875454187393188,-1.8799381256103516,,,,,
8.248522999999977,-12.983195320851676,31.872835229536715,-118.32343152819234,1.462310791015625,1.0211224555969238,-1.4067695140838623,,,,,
