timestamp,Roll,Pitch,Yaw,Acc X,Acc Y,Acc Z,Gyro X,Gyro Y,Gyro Z,Acc Magnitude,Gyro Magnitude
0.0,-65.62137427057819,-16.665811569926095,173.0585195831733,-0.6022771596908569,-1.2851190567016602,-0.3207733929157257,,,,,
0.009359000000017659,-63.77853914631618,-17.286038796885734,173.9992462077119,-0.17391833662986755,-0.93219393491745,-0.03442445397377014,,,,,
0.028139000000010128,-60.16568492814105,-17.881850536922194,175.65026172225757,0.34784477949142456,-0.3895626664161682,0.07601708173751831,,,,,
0.03753199999999879,-58.42341739213998,-17.581558859408066,176.4912803761262,0.5058248043060303,-0.3175795078277588,-0.21565958857536316,,,,,
0.04693299999996725,-56.51815772320916,-16.74258071271418,177.67759307711444,0.6774394512176514,-0.23098129034042358,-0.6549321413040161,,,,,
0.05613599999998087,-54.194947767666136,-15.29035731268315,179.6393441108032,0.9889886379241943,-0.11635351181030273,-1.0655052661895752,,,,,
0.0655079999999657,-51.21702726810389,-13.239526387287798,-177.24339063367768,1.4438444375991821,0.04168355464935303,-1.3224562406539917,,,,,
0.07490400000000363,-47.44731524484751,-10.701671513141758,-172.79971225742915,1.9195390939712524,0.22266137599945068,-1.3860211372375488,,,,,
0.08426900000000614,-42.874679406624224,-7.826195908649089,-167.0906311047223,2.3555612564086914,0.2970733046531677,-1.3240679502487183,,,,,
0.09366099999999733,-37.60603715642093,-4.726642342522919,-160.2718467849234,2.6765072345733643,0.2867991030216217,-1.2746080160140991,,,,,
0.10302999999998974,-31.75287483688329,-1.5853231602623428,-152.3452101765909,2.9200987815856934,0.2227572500705719,-1.2831039428710938,,,,,
0.12179900000000998,-18.244144406594035,3.42129690312971,-133.8205939564273,2.5958125591278076,-0.0622791051864624,-1.046615719795227,,,,,
0.13118500000001632,-10.899590214045242,4.741402112053359,-123.84856207862397,2.3696694374084473,-0.02750106155872345,-1.080836296081543,,,,,
0.14056499999998096,-3.515621788014885,4.971035698854996,-113.84984867108601,2.0284030437469482,0.24335721135139465,-1.2388520240783691,,,,,
0.14995999999996457,3.4380169398503826,3.9908694619281335,-104.18121571213895,1.118796467781067,0.992549479007721,-1.2268478870391846,,,,,
0.16871299999996836,14.406724576200627,-0.5565892540108359,-88.78098384965912,-0.8290659785270691,2.8080432415008545,-0.24480515718460083,,,,,
0.187657999999999,20.219541644852196,-5.9521250249439674,-81.73765619139756,-1.4205639362335205,3.6656572818756104,0.6695179343223572,,,,,
0.1970489999999927,21.35552205948311,-7.679356796885346,-82.10417213926578,-0.4144713282585144,3.807368516921997,1.0570719242095947,,,,,
0.20643799999999146,21.619988684804074,-8.226535732043837,-84.51604579498583,0.9595505595207214,3.4556548595428467,1.2168678045272827,,,,,
0.21582100000000537,21.053640209118885,-7.774916074374978,-87.31774114612033,1.5107439756393433,2.7762930393218994,1.4199285507202148,,,,,
0.22520299999996496,19.55885685409194,-6.712360614421479,-89.34388855097622,1.292460560798645,2.2043917179107666,1.3511711359024048,,,,,
0.2345940000000155,17.31918437494141,-5.509409642211987,-90.3987683905503,0.8411960601806641,1.7298604249954224,1.0432276725769043,,,,,
0.24397799999997005,14.659874731672247,-4.57796591527485,-90.66529999475098,0.29082149267196655,1.2332022190093994,0.6331082582473755,,,,,
0.2627350000000206,8.847255763242831,-3.75205012892105,-90.46906455703699,-0.14034594595432281,0.3913828730583191,0.13714760541915894,,,,,
0.27213199999999915,5.757669634205157,-3.627279907156705,-90.47767330926526,-0.09034883230924606,0.09776507318019867,-0.049902141094207764,,,,,
0.29089299999998275,-0.46957197449430244,-3.553427793758935,-90.68856594370861,-0.2874343991279602,-0.5803483724594116,-0.4622200131416321,,,,,
0.3001059999999711,-3.3910414156527504,-3.493135467574335,-91.03532762000127,-0.4193640947341919,-1.027004361152649,-0.7445865869522095,,,,,
0.3094780000000128,-5.986626000508052,-3.4787835998205128,-91.87734942205353,-0.3359100818634033,-1.526549220085144,-0.9846619367599487,,,,,
0.3188660000000141,-8.117948394507236,-3.6422617678029403,-93.12695115195623,-0.11012979596853256,-1.9806556701660156,-1.203188180923462,,,,,
0.3282530000000179,-9.639178698802494,-4.070236722580893,-94.4728497009699,0.07834964990615845,-2.329589605331421,-1.4094196557998657,,,,,
0.3376230000000078,-10.395926594908628,-4.778968310168579,-95.39795961935046,0.17630505561828613,-2.4312243461608887,-1.5926053524017334,,,,,
0.34701100000000906,-10.275465308112038,-5.84858260162604,-95.4259509996849,0.28532952070236206,-2.2647459506988525,-1.7110843658447266,,,,,
0.3564000000000078,-9.272987543112128,-7.394894928095228,-94.47318565231132,0.4159025251865387,-1.9237197637557983,-1.6846156120300293,,,,,
0.3751699999999687,-5.180260986534028,-11.876912705036146,-90.56947171313867,0.8368048667907715,-1.2163125276565552,-1.3362038135528564,,,,,
0.3845529999999826,-2.4838800639342344,-14.497060384042657,-88.13749064150342,1.1241250038146973,-0.9008580446243286,-1.145615816116333,,,,,
0.3939259999999649,0.3918037215096365,-17.093331768983845,-85.5181997304486,1.4160268306732178,-0.5582200288772583,-0.9904541373252869,,,,,
0.4033139999999662,3.2873732110291205,-19.555315397468593,-82.53814482447412,1.6255836486816406,-0.12796764075756073,-0.9351579546928406,,,,,
0.41270900000000665,6.07838421344087,-21.90818954193428,-78.93238671560347,1.6881966590881348,0.4632032513618469,-0.929401159286499,,,,,
0.42208699999997634,8.708737746202814,-24.273385305927288,-74.8122422426991,1.6782866716384888,1.1388278007507324,-0.86424320936203,,,,,
0.4316440000000057,11.090899738020466,-26.67205278013355,-70.54812344574728,1.6863670349121094,1.9535894393920898,-0.5706847310066223,,,,,
0.44102399999997033,13.125503854838726,-28.82096769150769,-66.81015544631813,1.6634244918823242,2.9791462421417236,0.029790163040161133,,,,,
0.45041600000001836,14.783341895032038,-30.00674839473768,-64.52214743864799,1.5719529390335083,3.6457064151763916,0.7245382070541382,,,,,
0.45978900000000067,15.92162654952182,-29.49930144967819,-64.05839416819578,1.4642300605773926,3.5449509620666504,1.0506062507629395,,,,,
0.4785559999999691,14.99910472401549,-23.7940742528447,-66.45289216070411,1.1954870223999023,2.6267809867858887,1.0872013568878174,,,,,
0.4879490000000146,12.82878035690029,-19.97929504780654,-68.20501369342331,0.5206201076507568,2.152515411376953,0.8082332015037537,,,,,
0.49733600000001843,10.02111622676745,-16.18037694155632,-70.05655744659191,-0.38382241129875183,1.7490156888961792,0.5685253143310547,,,,,
0.5067290000000071,6.84184666220311,-12.42671748294797,-72.29552159557907,-0.942551851272583,1.4398952722549438,0.4765694737434387,,,,,
0.5161079999999743,3.2436077348774246,-8.775751463347527,-75.5425323150352,-1.0395054817199707,1.2553377151489258,0.2947778105735779,,,,,
0.5254850000000033,-0.9569651824525918,-5.359166863666202,-80.18344405562651,-0.8773694634437561,1.1936841011047363,0.08079391717910767,,,,,
0.5346839999999702,-5.929204956138737,-2.3011596213654433,-86.26538277164536,-0.506923496723175,1.2270787954330444,-0.21134042739868164,,,,,
0.5440889999999854,-11.68824958605862,0.2360003365534837,-93.93298273501703,0.041938915848731995,1.2466579675674438,-0.6454646587371826,,,,,
0.5534809999999766,-18.028925487091023,1.9559714737602825,-103.0500071539693,0.6963470578193665,1.0959687232971191,-1.0691757202148438,,,,,
0.562923000000012,-24.665771316646396,2.414274653298164,-113.49443293805439,1.4502480030059814,0.9822966456413269,-1.484525442123413,,,,,
0.5722299999999905,-31.075578369197956,1.2517748023976618,-124.60327688395272,2.212477445602417,0.892531156539917,-1.7222423553466797,,,,,
0.5816039999999703,-36.650184028262174,-1.4445337898255157,-135.67679250945704,2.8944950103759766,0.7558196187019348,-1.7856087684631348,,,,,
0.5909990000000107,-40.98223174580443,-5.106142519458611,-146.05990428391127,3.363111972808838,0.5983157157897949,-1.754518985748291,,,,,
0.6003789999999753,-44.00771238586656,-8.970808438942838,-155.26625673469147,3.5872747898101807,0.31390640139579773,-1.553719162940979,,,,,
0.6097669999999766,-45.90889869660254,-12.202167218956317,-162.70845825954675,3.7965850830078125,-0.1656622290611267,-1.3420608043670654,,,,,
0.6285310000000095,-48.08260601842212,-14.036655274932322,-169.72515496014145,4.277072429656982,-0.9722076058387756,-1.1734505891799927,,,,,
0.637820999999974,-48.59209576235291,-11.960860493109411,-169.04863884149114,3.6950511932373047,-0.9493817090988159,-1.106027364730835,,,,,
0.656677000000002,-47.22098068078452,-2.429939441177725,-163.26196876462024,1.8764188289642334,-0.19827985763549805,-1.1660809516906738,,,,,
0.6660679999999957,-44.98836278010096,3.788695693148128,-159.3243474222545,0.9608241319656372,0.04002350568771362,-1.2198193073272705,,,,,
0.6754419999999755,-41.90267139576893,10.105808269028687,-154.92847847137188,-0.07658778131008148,0.33127132058143616,-1.181943416595459,,,,,
0.6848269999999843,-38.169922526162445,16.001580711874674,-150.1991481158901,-1.3313237428665161,0.7104332447052002,-1.0690219402313232,,,,,
0.6942090000000007,-33.91824188065254,21.035602855474675,-145.25334216381202,-2.7139925956726074,0.9988133311271667,-0.7689259648323059,,,,,
0.7129800000000159,-25.370102000577774,27.018330822169567,-136.5463490113409,-4.540898323059082,1.97940993309021,0.3142772316932678,,,,,
0.7319269999999847,-21.874824885530202,27.05144085586547,-135.64434173189233,-4.243191719055176,2.6249279975891113,1.6420679092407227,,,,,
0.7413139999999885,-23.079041666116744,25.614121037729863,-138.58747157431497,-3.3370094299316406,2.247157335281372,1.5853071212768555,,,,,
0.7506970000000024,-25.682941419483114,23.475438666133957,-142.54264686534972,-2.2939453125,1.788803219795227,1.1390453577041626,,,,,
0.7600749999999721,-28.939866894052273,20.745784506255635,-146.66732972851977,-1.3589063882827759,1.423143744468689,0.6243814826011658,,,,,
0.77883700000001,-35.021923919812366,14.191156154386562,-154.16221820792077,-0.24406549334526062,0.7505947351455688,-0.2593424320220947,,,,,
0.7974489999999719,-39.389420581852534,6.375821504935967,-161.6383285560328,0.5651320815086365,0.36860060691833496,-0.7119560837745667,,,,,
0.8068349999999782,-40.93549880244035,1.9041572068285193,-165.5659604363427,1.0958471298217773,0.2676127254962921,-0.9177841544151306,,,,,
0.8162120000000073,-41.85382919869976,-2.694894237133801,-169.3519851047457,1.6531751155853271,0.2746240496635437,-1.1149115562438965,,,,,
0.8256020000000035,-42.034398637538416,-7.089795995949547,-172.75212168819112,2.1550488471984863,0.33090266585350037,-1.2216540575027466,,,,,
0.8349719999999934,-41.47780116690189,-10.990424357940594,-175.55990367710538,2.6844096183776855,0.3871438801288605,-1.1644291877746582,,,,,
0.8537379999999644,-38.9119108355998,-16.204732840556876,-179.41199571580486,3.6537251472473145,0.5514361262321472,-0.518088698387146,,,,,
0.8631169999999884,-37.57420223188272,-17.036076339061932,179.31301549005997,3.9343297481536865,0.5166575312614441,-0.17048484086990356,,,,,
0.8725149999999644,-36.52445442003312,-16.354448682596864,178.44012781150354,3.9952571392059326,0.40881872177124023,-0.038361191749572754,,,,,
0.8818949999999859,-35.82785237989627,-14.097292759212113,178.14464008338527,3.694593906402588,0.27101337909698486,-0.09194278717041016,,,,,
0.910035999999991,-34.44670229987674,0.551964572773649,-178.4239175870462,2.280785322189331,0.26621901988983154,-0.7045706510543823,,,,,
0.9288809999999899,-32.00933429584361,14.517575051961789,-170.03218592994523,1.1080896854400635,1.1946196556091309,-1.511899471282959,,,,,
0.947558000000015,-24.258246058212407,27.501733608890927,-152.6480523485435,-1.4536305665969849,2.490391254425049,-2.1418986320495605,,,,,
0.9569690000000151,-16.641014797608577,30.940823757773277,-140.00000138276246,-2.7505743503570557,3.0357604026794434,-1.4325134754180908,,,,,
0.9852889999999661,7.256864295483679,22.63881615742248,-106.38481326709994,-2.1387763023376465,3.5927042961120605,0.5725969076156616,,,,,
0.9946779999999649,11.130921659587496,17.623331719005098,-100.91122391293827,-1.306425929069519,3.1080591678619385,0.6057192087173462,,,,,
1.0134370000000104,11.981012636009591,12.517182225415032,-98.75078405880504,-0.11120647192001343,2.5899291038513184,0.6893494725227356,,,,,
1.0228250000000116,9.98943166619866,12.234581169516346,-101.01865443114505,0.236555814743042,2.104799270629883,0.3656187057495117,,,,,
1.0415889999999877,3.8230840156806485,12.133102348269512,-107.10568180423434,0.5085925459861755,0.9752303957939148,-0.09342706203460693,,,,,
1.0509890000000155,0.5737278800294342,11.430560474461986,-108.90749230138796,0.7205814123153687,0.4452454745769501,-0.33400505781173706,,,,,
1.0601800000000026,-2.429183649331635,10.155317917920916,-109.1578644494526,0.872690737247467,-0.07271602749824524,-0.5676733255386353,,,,,
1.0695650000000114,-5.200409522932144,8.399526175388445,-107.89078146304105,0.7343568801879883,-0.3305017352104187,-0.7648699283599854,,,,,
1.0789479999999685,-7.758692510233938,6.267991058563387,-105.64766447103551,0.3800175189971924,-0.3728395402431488,-0.9344146847724915,,,,,
1.0977439999999774,-12.17721561145719,1.3804442764856368,-101.11152806981784,-0.03764135763049126,-0.7929439544677734,-1.1804687976837158,,,,,
1.1071109999999749,-13.988000550907017,-1.00778946912936,-99.4019173604533,0.03340788930654526,-1.1213058233261108,-1.23884117603302,,,,,
1.1164899999999989,-15.360650009912268,-3.1819538451934477,-98.18772955617285,0.17190173268318176,-1.4952459335327148,-1.2860920429229736,,,,,
1.1258700000000204,-16.11149399650814,-5.12263617026936,-97.46225868895519,0.31746140122413635,-1.8300565481185913,-1.3406994342803955,,,,,
1.1352420000000052,-16.081738254168265,-6.842807740108153,-97.05535597916908,0.5347757935523987,-1.961228370666504,-1.4564201831817627,,,,,
1.1446439999999711,-15.171894146670999,-8.401436125436431,-96.61157916878904,0.6188341379165649,-1.7343320846557617,-1.4859769344329834,,,,,
1.201120000000003,1.9322396821488996,-17.077620969420927,-93.03126607273236,-0.12383905053138733,2.8596575260162354,1.6798344850540161,,,,,
1.2104889999999955,4.160280576091085,-17.343354700243015,-93.55986656913296,0.10767877101898193,3.3152761459350586,2.1987502574920654,,,,,
1.2292719999999804,4.184768295189419,-16.16388913472171,-96.56686255245255,0.6500378847122192,2.9852805137634277,2.108438014984131,,,,,
1.2386549999999943,1.9503828070378804,-14.861704354354508,-98.76497534974153,0.5082125663757324,2.4907968044281006,1.667747139930725,,,,,
1.2574220000000196,-5.409739565061617,-11.379691473972931,-104.63915037844843,0,1.2521549463272095,0.618320643901825,,,,,
1.2667869999999652,-9.992431219765445,-9.77858025109865,-108.54177372913371,-0.0819987878203392,0.7775788903236389,0.10258859395980835,,,,,
1.276188999999988,-14.914177083413877,-8.71955435135319,-113.18986683237317,-0.05570411682128906,0.46325796842575073,-0.34758520126342773,,,,,
1.2855710000000045,-19.979409231805835,-8.423270453273155,-118.58773675640832,0.2285451889038086,0.3011484146118164,-0.7500954866409302,,,,,
1.2948049999999967,-24.926258452670766,-8.980953293115473,-124.50005235173941,0.6996039748191833,0.1637396514415741,-1.156571865081787,,,,,
1.3135540000000105,-33.49816250810046,-12.319879458543078,-135.98154552464788,1.8420894145965576,-0.16059714555740356,-1.8739086389541626,,,,,
1.3323090000000093,-39.60948041827799,-17.159858270994796,-144.54119497803163,2.4365451335906982,-0.24141854047775269,-2.0668954849243164,,,,,
1.3510890000000018,-43.46971364003022,-20.48335097372736,-149.57474167313953,2.4150774478912354,-0.09290003776550293,-2.0152719020843506,,,,,
1.3604700000000207,-44.71639488911491,-21.035963975557273,-151.08978871756105,2.2664906978607178,0.0579257607460022,-1.8952043056488037,,,,,
1.3792310000000043,-46.19402486445148,-19.728100607267024,-153.46997395607548,1.2579634189605713,0.08249932527542114,-1.1456966400146484,,,,,
1.3888069999999857,-46.813748872743936,-18.174272776173744,-154.8906628674429,0.6760517358779907,-0.03924751281738281,-0.6641462445259094,,,,,
1.3981689999999958,-47.68677221970532,-16.353943772725202,-156.53353726142637,0.039781421422958374,-0.29304468631744385,-0.06303852796554565,,,,,
1.4075679999999693,-49.05318081429023,-14.412919485491924,-158.317595656651,-0.7883890271186829,-0.6443756818771362,0.5279197096824646,,,,,
1.416956999999968,-50.96168230312196,-12.406436750933215,-160.14330682808918,-1.7583861351013184,-1.1665788888931274,1.006727695465088,,,,,
1.4357099999999718,-55.53910044996731,-8.333970643145621,-163.30431701501183,-3.418689012527466,-1.9243199825286865,0.8521506190299988,,,,,
1.4450840000000085,-57.26970352154288,-6.9824753688642085,-164.19896101193055,-3.495596170425415,-1.909531593322754,0.2692475914955139,,,,,
1.4732470000000149,-56.673462610911734,-9.854080304931085,-162.53648963845094,-1.2198493480682373,-0.9860396981239319,-0.153109610080719,,,,,
1.4826380000000086,-55.05017373931646,-12.12341721858712,-161.1072971392498,-0.2751635015010834,-0.5913837552070618,-0.06477168202400208,,,,,
1.4920179999999732,-53.348044935392245,-14.446782995386284,-159.7111232748998,0.38711848855018616,-0.2522890567779541,0.042162418365478516,,,,,
1.5107899999999859,-50.56105494479018,-18.074336957958014,-157.5571967141486,0.8521692752838135,0.24472332000732422,-0.3333212435245514,,,,,
1.5200009999999793,-49.52137956572931,-19.29490939165003,-156.79041656915746,1.1821296215057373,0.3155617415904999,-0.8130331635475159,,,,,
1.5387470000000008,-47.65555753918934,-20.71228103112581,-154.7136692991504,1.7857210636138916,0.22334179282188416,-1.4886951446533203,,,,,
1.548138999999992,-46.58939764270481,-20.75030850114112,-153.21057352244387,2.006896495819092,0.12861216068267822,-1.6740400791168213,,,,,
1.5669110000000046,-43.661743912630904,-19.281964786231928,-149.52074552516862,2.3179187774658203,-0.1213257908821106,-1.7950067520141602,,,,,
1.5762809999999945,-41.668145391651116,-17.64123782818621,-147.59470839467977,2.368504047393799,-0.34221065044403076,-1.7130167484283447,,,,,
1.595055000000002,-36.40659420150916,-12.27802884922772,-144.0444716801388,1.637110948562622,-0.4014374613761902,-1.4437577724456787,,,,,
1.6044309999999768,-32.94300883662283,-8.46303715427561,-142.1146176337587,1.1477384567260742,-0.20803046226501465,-1.2690337896347046,,,,,
1.6232160000000135,-24.1469990433474,0.5294241351985874,-136.33385187359735,-0.8315840363502502,1.0317449569702148,-0.8382861018180847,,,,,
1.6325979999999731,-19.060663782171364,4.900307096859432,-133.30996466568138,-2.1562068462371826,1.946507453918457,-0.16653203964233398,,,,,
1.6419769999999971,-14.513326989183236,8.891191606867192,-131.36423573210516,-3.586207389831543,2.8032467365264893,0.8711023926734924,,,,,
1.6513649999999984,-11.541666457251821,12.232439877232238,-131.02419276946023,-4.095944404602051,3.278719425201416,1.6339881420135498,,,,,
1.6609239999999659,-10.220535119312853,14.211884908039872,-131.63157993878403,-3.500138521194458,3.436724901199341,1.830514669418335,,,,,
1.6796860000000038,-10.324018463355365,13.098505432361469,-132.28325945259706,-1.7039048671722412,2.836589813232422,1.5176537036895752,,,,,
1.6890700000000152,-11.007329307399086,11.476212415809036,-131.86127147820577,-0.8209614753723145,2.056886911392212,1.0746891498565674,,,,,
1.6984539999999697,-12.230300514676587,10.197950425157439,-131.33299662447516,-0.2843567132949829,1.2889243364334106,0.6558545827865601,,,,,
1.707843999999966,-14.141159152277224,9.452419982761889,-131.27691342358332,0,0.7289915680885315,0.19685637950897217,,,,,
1.7172180000000026,-16.56958035068903,9.014318307371488,-131.77563508091484,0.2005992978811264,0.43976595997810364,-0.1899935007095337,,,,,
1.7266089999999963,-19.055768431177366,8.632716547866126,-132.53883961197562,0.39556199312210083,0.17760567367076874,-0.6055824756622314,,,,,
1.7358209999999872,-21.084656125273078,8.258224245084234,-133.02617609576527,0.6828728318214417,-0.2583794891834259,-0.9724208116531372,,,,,
1.745207999999991,-22.337962854714807,7.983405676731489,-132.71830641972988,0.9953244924545288,-0.7970148324966431,-1.184639811515808,,,,,
1.7545839999999657,-22.788496974204374,7.880664673637298,-131.4290544236327,1.0279525518417358,-1.312864065170288,-1.2211641073226929,,,,,
1.7639599999999973,-22.632594506124644,7.947485361703322,-129.2821938702812,1.2426077127456665,-1.895643949508667,-1.342104434967041,,,,,
1.773352999999986,-21.88868882876231,8.105760531548965,-126.38651408742041,1.7145549058914185,-2.4547362327575684,-1.5313255786895752,,,,,
1.7827369999999974,-20.402776486524072,8.286662914789419,-122.79033417810561,1.7823400497436523,-2.6984381675720215,-1.4757492542266846,,,,,
1.7921139999999696,-18.10413247899945,8.473305153370788,-118.76671726673204,1.5508346557617188,-2.6108903884887695,-1.3112438917160034,,,,,
1.801497999999981,-15.085984163567863,8.689850042708484,-114.5872424521714,1.5470077991485596,-2.4111063480377197,-1.219437837600708,,,,,
1.8108809999999949,-11.44256128064003,8.899362056794338,-110.07276815421515,1.6367534399032593,-2.122737169265747,-1.2086658477783203,,,,,
1.8202689999999961,-7.266095012339548,8.988698672247974,-105.00054015523737,1.5272736549377441,-1.6611571311950684,-1.1164277791976929,,,,,
1.8296530000000075,-2.697384429253895,8.826882298477146,-99.28035865632,1.3651516437530518,-1.0802890062332153,-1.085394024848938,,,,,
1.8390509999999836,2.1467279645698856,8.210408659184168,-92.95970973070754,1.1334469318389893,-0.36257028579711914,-1.1998720169067383,,,,,
1.8484359999999924,7.0645476633425695,6.836732669095485,-86.35514391302972,0.7961390614509583,0.5945166349411011,-1.168839931488037,,,,,
1.8578059999999823,11.706281629582014,4.412835621253577,-80.06779509654828,0.23651742935180664,1.9078212976455688,-1.3642584085464478,,,,,
1.8765730000000076,19.05408762245477,-3.2634510727165433,-70.60391693325505,-0.5976304411888123,3.549036741256714,-0.16800343990325928,,,,,
1.8861370000000193,21.009764270984828,-7.7122065569672325,-67.79637392732063,0.849856436252594,3.7710041999816895,0.26051878929138184,,,,,
1.8955179999999814,21.653395628525754,-11.750249308071647,-66.25527501199889,1.9096404314041138,3.5454294681549072,0.6818974614143372,,,,,
1.9142810000000168,19.88750069877749,-15.237503397899362,-67.63411912818388,2.8225624561309814,2.7359402179718018,0.8148460388183594,,,,,
1.9236639999999738,17.94073914887089,-14.508360310831517,-68.56168408822894,2.3136777877807617,2.2242650985717773,0.5656526684761047,,,,,
1.9424379999999815,11.996368489502897,-11.369430772018466,-67.66082398613185,0.9984681606292725,1.1426234245300293,-0.04787087440490723,,,,,
1.9518059999999764,8.094316528048683,-10.350472749959712,-66.05632275750064,0.2792973518371582,0.9636378288269043,-0.3331835865974426,,,,,
1.9612280000000055,3.89076952657002,-9.84421386734439,-64.11194682263887,-0.3866637349128723,0.8010533452033997,-0.4335178732872009,,,,,
1.9798000000000116,-4.733555353474908,-9.451238016788393,-61.70411688409963,-1.224142074584961,0.1292250007390976,-0.7866416573524475,,,,,
1.98920499999997,-8.804642987949558,-9.3930660575985,-62.10558632132933,-1.1011406183242798,-0.4777761995792389,-0.8663865923881531,,,,,
1.99856299999999,-12.560822781950183,-9.47799529672536,-63.40968146205818,-0.7095187902450562,-1.2768234014511108,-1.0793743133544922,,,,,
2.0079529999999863,-15.82715244738377,-9.742562473336509,-64.99181090508691,-0.5737714767456055,-2.0165042877197266,-1.3476428985595703,,,,,
2.0173300000000154,-18.379310086490964,-10.201622308648986,-66.39725135871502,-0.7578304409980774,-2.314877986907959,-1.58229660987854,,,,,
2.036101999999971,-20.752608506264234,-12.014578648116059,-68.20931584304003,-1.1185219287872314,-2.051220178604126,-1.4211812019348145,,,,,
2.045480999999995,-20.884250138673195,-13.585200648913075,-68.68216895581709,-1.0766881704330444,-1.8924404382705688,-1.2885605096817017,,,,,
2.054871999999989,-20.68079172515042,-15.721752697069205,-68.9518301353269,-0.9505026340484619,-1.7047744989395142,-1.2016605138778687,,,,,
2.0642540000000054,-20.214134412663903,-18.427035924360013,-69.2120001913931,-0.7650529146194458,-1.4907220602035522,-1.2994834184646606,,,,,
2.0736269999999877,-19.248905006877866,-21.591984893627057,-69.5485493661692,-0.5309821367263794,-1.1762523651123047,-1.3751212358474731,,,,,
2.0924160000000143,-14.702646057350849,-28.53866954466409,-70.44656944916557,0,-0.43242189288139343,-1.1886494159698486,,,,,
2.1019600000000196,-11.127631395826864,-32.081077063237224,-71.22762523204699,0.19137167930603027,0.21110279858112335,-0.7855004072189331,,,,,
2.111341999999979,-6.95017987413692,-35.52491499394145,-72.31216661421662,0.4205700755119324,1.0561816692352295,-0.3013436198234558,,,,,
2.1301030000000196,1.7114878044535973,-41.28398432686685,-76.27183239026121,1.3461403846740723,3.263260841369629,0.7965714335441589,,,,,
2.148875999999973,7.725494220228764,-43.787232338595686,-82.31739633118096,2.3211820125579834,3.7808477878570557,1.5616378784179688,,,,,
2.1770230000000197,4.287400251486825,-40.54036684453761,-87.63118170294442,0.972868025302887,2.0035228729248047,0.9706677198410034,,,,,
2.186444999999992,1.270431028035183,-38.32867926878792,-89.4272937503512,0.33460748195648193,1.4065912961959839,0.6345809698104858,,,,,
2.205171000000007,-5.072458469225119,-33.494442657485855,-95.92571453080161,-0.07141360640525818,0.6891005039215088,0.07749021053314209,,,,,
2.2239419999999654,-11.73971729099558,-29.242706631893565,-106.45789128715451,0.24764347076416016,0.4439823031425476,-0.6144576668739319,,,,,
2.233159999999998,-15.16969813923941,-27.757852054815825,-112.97860400959034,0.5073415637016296,0.29622358083724976,-0.9831682443618774,,,,,
2.2425400000000195,-18.55551067363624,-26.848494197644847,-119.75782367505856,0.796188473701477,0.2124253660440445,-1.3687191009521484,,,,,
2.2519229999999766,-21.699683235137336,-26.584807063865995,-126.59683339568211,1.1038352251052856,0.10177493095397949,-1.636591911315918,,,,,
2.2612950000000183,-24.512406074173665,-26.868499247574306,-133.3796593795623,1.4378408193588257,0,-1.8257156610488892,,,,,
2.2706809999999678,-26.962996915544146,-27.507188077206067,-140.02242215360306,1.7575695514678955,0,-1.9229495525360107,,,,,
2.280073000000016,-29.089501577582933,-28.30183910670609,-146.56881306868624,2.0346970558166504,-0.07775658369064331,-1.9911150932312012,,,,,
2.289445999999998,-30.914726479936164,-29.046130072917286,-152.98686689544638,2.293407917022705,-0.04007801413536072,-1.9758915901184082,,,,,
2.2988469999999666,-32.42762887668051,-29.46304915858838,-158.96370878656754,2.4424877166748047,-0.04527518153190613,-1.862682580947876,,,,,
2.3082239999999956,-33.74023784687578,-29.36228548932843,-164.1914581077131,2.4789116382598877,-0.13519921898841858,-1.7334411144256592,,,,,
2.3176070000000095,-34.995870345655476,-28.693174011591367,-168.40326540155695,2.32783842086792,-0.27942031621932983,-1.6636176109313965,,,,,
2.3269980000000032,-36.19758325897857,-27.450360890955718,-171.44265549918205,1.9133893251419067,-0.46558845043182373,-1.4759495258331299,,,,,
2.336557999999968,-37.27576294308368,-25.615978680810965,-173.40563037973314,1.2861597537994385,-0.6219086050987244,-1.1372053623199463,,,,,
2.3459339999999997,-38.12355609566231,-23.165743165589213,-174.6547318401972,0.5452802181243896,-0.7744224071502686,-0.6927577257156372,,,,,
2.355322000000001,-38.651590355032205,-19.989789353837526,-175.39272315592234,-0.3935766816139221,-0.9487866163253784,-0.14392220973968506,,,,,
2.3739029999999843,-39.11175198231575,-11.801485197488553,-176.4148748996327,-3.3870110511779785,-1.0863568782806396,0.6593391299247742,,,,,
2.383289999999988,-39.430334158794395,-7.878846274501399,-177.35303179937142,-4.490525245666504,-0.8858575820922852,0.6557009816169739,,,,,
2.3926739999999995,-39.84607123684344,-5.496013984878364,-178.80517110369502,-4.37480354309082,-0.553919792175293,0.23225200176239014,,,,,
2.4020550000000185,-40.01041045063132,-5.218889447439604,179.626937254539,-3.6628756523132324,-0.24326813220977783,0.2212945818901062,,,,,
2.4208209999999895,-39.05764143615497,-8.952017901981982,177.29648017878645,-1.6635254621505737,0.16101714968681335,0.14696532487869263,,,,,
2.430398999999966,-38.06161994933242,-11.53227623180677,176.5375682413642,-0.6498535871505737,0.20023727416992188,0.31165772676467896,,,,,
2.4491580000000113,-36.67616340430653,-15.997756107363562,175.2026480057031,0.3368435502052307,0.43775880336761475,0.23650717735290527,,,,,
2.4585629999999696,-36.352721868111075,-17.680237484502403,174.1356915458961,0.5429792404174805,0.6477115154266357,-0.033883094787597656,,,,,
2.467743999999982,-36.05722638665483,-19.04777597529968,172.77017859996832,0.7667674422264099,0.7935288548469543,-0.26738664507865906,,,,,
2.477128999999991,-35.738886645465286,-20.14177433623717,171.32272152198587,1.0276718139648438,0.9197343587875366,-0.486576646566391,,,,,
2.495892999999967,-35.08574020129063,-21.47944889787939,168.72306049832088,2.0406529903411865,0.9638283848762512,-0.5499188899993896,,,,,
2.5052759999999807,-34.89536924972955,-21.53854995734118,167.56548116096488,2.6882452964782715,0.9544909596443176,-0.4213297367095947,,,,,
2.514659999999992,-34.90119116981655,-21.012985927229767,166.42391711567004,3.2699484825134277,0.9181649684906006,-0.23612534999847412,,,,,
2.5240459999999985,-35.19937859476923,-19.760799681370397,165.39364821795093,3.577378034591675,0.7493863105773926,0,,,,,
2.533434999999997,-35.92858090476138,-17.617943296084864,164.63128065776547,3.4498112201690674,0.633181095123291,0.14151841402053833,,,,,
2.5428139999999644,-37.053110211100396,-14.417749622292096,164.13543854369797,2.8966610431671143,0.49768492579460144,0.16547620296478271,,,,,
2.5521949999999833,-38.50888023930124,-10.192763753394576,163.67229180209745,2.1947216987609863,0.39564383029937744,0,,,,,
2.561579999999992,-40.193527546074975,-5.109365650892867,162.99242147696177,1.578927993774414,0.35292911529541016,-0.23477494716644287,,,,,
2.5803490000000124,-44.396944291045564,6.896464537790107,160.67850382964897,-0.06487787514925003,0.323921263217926,-1.268350601196289,,,,,
2.5897509999999784,-46.99959366457271,13.293594151816082,159.14283528017998,-1.4543938636779785,0.1288304328918457,-1.893496036529541,,,,,
2.6085009999999897,-52.3724356673043,24.82439880074826,155.92773742075198,-2.596982479095459,0.10661453008651733,-1.9507780075073242,,,,,
2.6178899999999885,-54.274240318855874,29.35273765984249,154.89306381659765,-2.261653184890747,0.2991391718387604,-1.5056935548782349,,,,,
2.636837000000014,-55.96119887843931,35.18302315049881,154.8560375382232,-2.149540901184082,0.5096461772918701,-0.9886951446533203,,,,,
2.646207000000004,-56.47225004365708,36.95524339853734,155.25428559857977,-2.8084723949432373,0.34284788370132446,-1.2524460554122925,,,,,
2.655594000000008,-56.82295979784158,38.48436781339106,155.92154927242993,-2.668046474456787,0.21645987033843994,-1.2953017950057983,,,,,
2.6649759999999674,-56.47936736747583,39.60982680190263,157.0967320780178,-1.9417756795883179,0.14183151721954346,-1.1577019691467285,,,,,
2.6743720000000053,-55.06128448644153,40.28296357906713,159.19797262960148,-1.4703890085220337,0.21471422910690308,-0.8399903178215027,,,,,
2.68374799999998,-52.90572576612058,40.59515345645274,161.86727118617083,-1.1807618141174316,0.3504478931427002,-0.48457908630371094,,,,,
2.693127000000004,-50.674649953174466,40.5872884360569,164.44283474322646,-0.8153541684150696,0.41470077633857727,-0.12429910898208618,,,,,
2.7025019999999813,-48.77538451251894,40.36119330056699,166.63840105226828,-0.4023359417915344,0.4188982844352722,0,,,,,
2.721287000000018,-45.560472889828276,39.56152425332154,170.29977451052525,0.4141266942024231,0.14759859442710876,0.09924614429473877,,,,,
2.730679000000009,-43.86339289390165,39.107435450682225,172.16160603166207,0.9247889518737793,-0.14769983291625977,0.2567039728164673,,,,,
2.739879999999971,-42.10982673650272,38.761947340498274,174.30111382374426,1.4298145771026611,-0.3740788698196411,0.5239130258560181,,,,,
2.758638000000019,-39.29854471453417,38.62504281757224,178.48856394633736,1.9913455247879028,-0.5077861547470093,0.9245648384094238,,,,,
2.76803000000001,-38.73529810174893,38.77347734313474,179.80688262669068,2.325939178466797,-0.6077306866645813,0.9112334847450256,,,,,
2.77741199999997,-38.57261688114974,39.22969523058393,-179.35819398204944,2.5705151557922363,-0.6074597239494324,0.7820086479187012,,,,,
2.786785000000009,-38.666116400616794,40.13939792374869,-178.97149914310467,2.5783417224884033,-0.5183782577514648,0.6843295097351074,,,,,
2.7961710000000153,-39.099064046213584,41.645942382215985,-179.23729083225498,2.4706056118011475,-0.38321653008461,0.5390533208847046,,,,,
2.805558000000019,-39.94461004612989,43.96187472591,179.88056140455888,2.216487169265747,-0.16981425881385803,0.293113648891449,,,,,
2.8149520000000052,-41.265239545406445,47.060005596620016,178.48726531931004,1.7978508472442627,0.10160398483276367,0.03839379549026489,,,,,
2.824321999999995,-43.2185925447208,50.57852253666806,176.59459175615396,1.032590389251709,0.32139307260513306,-0.2971065044403076,,,,,
2.843279999999993,-49.32794226263083,57.10369570199168,171.30356984897844,-0.4716112017631531,0.5183207392692566,-1.0679280757904053,,,,,
2.8526640000000043,-52.663613724693526,59.72351912533207,168.62675414442973,-1.056687593460083,0.7151426076889038,-1.371832013130188,,,,,
2.862037999999984,-55.39319796376039,61.86952209698504,166.56018455860703,-1.5742383003234863,0.9617159962654114,-1.5512328147888184,,,,,
2.871417000000008,-57.10048804140374,63.593116726597344,165.46164092774077,-1.9820880889892578,1.1361733675003052,-1.6336095333099365,,,,,
2.8807959999999753,-57.72944758443472,64.94509856684768,165.42026980703827,-2.2270679473876953,1.2786993980407715,-1.6571877002716064,,,,,
2.8901859999999715,-57.47289399580936,65.86018042696527,166.21879262361446,-2.377556562423706,1.3308323621749878,-1.4911611080169678,,,,,
2.8995749999999703,-56.56702447016678,66.28498166876936,167.6331068912811,-2.245229482650757,1.2767612934112549,-1.2947237491607666,,,,,
2.9089569999999867,-54.925366472392625,66.27314059909891,169.8266231414836,-1.9788645505905151,1.1357415914535522,-1.1286771297454834,,,,,
2.9277230000000145,-49.29526640616092,65.2489253029654,176.95400089184986,-1.474535346031189,0.7971065044403076,-0.6993347406387329,,,,,
2.937116000000003,-45.87546980405352,64.1985028291259,-178.60823582600278,-1.2678872346878052,0.6987000107765198,-0.5924385786056519,,,,,
2.955883999999969,-40.0052144911539,60.59659822860661,-170.52533999749593,-0.9493094682693481,0.5715762376785278,-0.47124388813972473,,,,,
2.9652659999999855,-38.17842854146747,57.96211821472448,-167.5778314894476,-0.6290004849433899,0.4845483899116516,-0.456793874502182,,,,,
2.9746700000000033,-37.071184887014695,54.86797300550661,-165.40637150848252,-0.23186945915222168,0.34128332138061523,-0.44208937883377075,,,,,
2.984041999999988,-36.42913442664015,51.48899739109325,-163.7350726519266,0.2544633746147156,0.12087717652320862,-0.4331728219985962,,,,,
2.9932299999999827,-35.89203110647427,48.051870202913264,-162.27511481853003,0.7730214595794678,-0.23031017184257507,-0.4341851472854614,,,,,
3.012006999999983,-33.87141056829066,41.80391438068952,-158.84902151544287,1.756035566329956,-0.9743740558624268,-0.3737133741378784,,,,,
3.021382000000017,-31.981461450109634,39.080755581204365,-156.38714089176813,2.151747703552246,-1.0950729846954346,-0.3522258400917053,,,,,
3.040159000000017,-26.6219866833134,34.016302009553996,-150.1824592179489,2.4950742721557617,-0.853460431098938,0,,,,,
3.049535999999989,-23.81714001176877,31.63337809560197,-147.15150021685605,2.5604116916656494,-0.8066426515579224,0.338844895362854,,,,,
3.0683030000000144,-19.350124237743838,28.121215623956175,-142.61407554340153,2.6819727420806885,-0.9751126766204834,0.41275161504745483,,,,,
3.0776950000000056,-17.812224782336134,27.606648948567077,-141.05141151967214,2.3558573722839355,-0.83595871925354,0.2897046208381653,,,,,
3.096455999999989,-14.791856037067852,29.881958486901254,-137.79644169843357,1.093324899673462,-0.12535999715328217,-0.39155930280685425,,,,,
3.1060109999999668,-12.623635859172698,32.23461785120575,-135.43237560374732,0.1039411723613739,0.14118391275405884,-0.3479199707508087,,,,,
3.1247789999999895,-7.312267968077139,36.57819415733209,-128.6834218024176,-1.977555751800537,1.2480322122573853,-0.636454701423645,,,,,
3.134166999999991,-4.273047750845407,37.31256331806407,-124.74446211449906,-2.9904043674468994,2.2028000354766846,-0.4461672902107239,,,,,
3.1435599999999795,-1.4678342098129944,36.663463437111396,-121.36812544938411,-3.3561811447143555,2.8375275135040283,0.2280253767967224,,,,,
3.1529390000000035,0.6325423421131103,34.76254260736014,-118.9322397545678,-3.0232179164886475,2.963338851928711,0.6108031868934631,,,,,
3.1623220000000174,1.9621786035105082,32.01221002512199,-117.3686251148576,-2.3942463397979736,2.7530550956726074,0.8305460214614868,,,,,
3.1716949999999997,2.3417145329598568,28.920863436744334,-116.54734982871999,-1.7675484418869019,2.337136745452881,1.0366913080215454,,,,,
3.1810780000000136,1.626375268252537,25.820038016844748,-116.44495025846118,-1.2304911613464355,1.7856638431549072,0.9421495795249939,,,,,
3.1904719999999998,0.010382358371261833,22.902171929445196,-116.87632948534849,-0.900141716003418,1.2888851165771484,0.5557593703269958,,,,,
3.199861999999996,-2.1337081765849315,20.226548436219566,-117.56398224927105,-0.6141670346260071,0.8430632948875427,0.2645041346549988,,,,,
3.2092529999999897,-4.498040713619644,17.722314751075064,-118.31885074065926,-0.307063490152359,0.502190351486206,0,,,,,
3.2186320000000137,-6.9701030243803705,15.149697950540382,-119.07051374882843,0,0.29793664813041687,-0.17780184745788574,,,,,
3.228012999999976,-9.511216632769447,12.286261571622589,-119.73963511945661,0.18863750994205475,0.12607422471046448,-0.35122567415237427,,,,,
3.2373870000000124,-12.129184769845914,9.03931056000033,-120.34333397224029,0.3313261866569519,-0.16508328914642334,-0.5268232226371765,,,,,
3.2465909999999667,-14.860426760596788,5.452789318673734,-120.78209698609254,0.4029523730278015,-0.45644623041152954,-0.8377406001091003,,,,,
3.255997999999977,-17.626257821724053,1.6538584637950404,-121.18643210608283,0.461716890335083,-0.6662468910217285,-1.1588361263275146,,,,,
3.265369000000021,-20.133490713417235,-2.218289625492994,-121.67781163619573,0.5820297002792358,-0.8082213401794434,-1.4347310066223145,,,,,
3.274751999999978,-22.070908743129802,-6.010698805195734,-122.44997704014646,0.8180950880050659,-0.9097561240196228,-1.525770664215088,,,,,
3.284140999999977,-23.281011275801657,-9.632669370655622,-123.56118404722035,1.091711163520813,-0.9742957949638367,-1.5378323793411255,,,,,
3.2935279999999807,-23.866516628151224,-13.022586717941072,-124.86940372811006,1.273803472518921,-0.9221829175949097,-1.4699856042861938,,,,,
3.3029040000000123,-24.002493297009792,-16.095387871861405,-126.30011938574106,1.3439018726348877,-0.7530447244644165,-1.3476656675338745,,,,,
3.321663000000001,-23.12910843567456,-20.52508492740756,-128.94485118378864,1.3112707138061523,-0.2238350212574005,-1.1203746795654297,,,,,
3.33104800000001,-22.04380048684032,-21.540193627985037,-129.7434500036199,1.128082513809204,0.03873184323310852,-0.8709502816200256,,,,,
3.3500139999999874,-18.83333552371317,-21.07732370905741,-131.0091682017717,0.09494873881340027,0.7479795813560486,0.0533297061920166,,,,,
3.35938299999998,-17.21748688111791,-19.82650926415941,-132.45103079565803,-0.42871713638305664,1.072914958000183,0.7940572500228882,,,,,
3.378153999999995,-16.34763487167397,-16.29536455901165,-138.49295703675978,-1.132145643234253,1.4352545738220215,1.9076662063598633,,,,,
3.3875419999999963,-17.934214197647904,-14.53473155341225,-142.34401160316895,-1.4380238056182861,1.4768304824829102,2.103172540664673,,,,,
3.396909999999991,-20.751814764379194,-13.15268508359924,-146.06436226462836,-1.780116081237793,1.3973939418792725,1.9376168251037598,,,,,
3.4061100000000124,-24.196433483824418,-12.31333837165326,-149.19517569462943,-1.921255111694336,1.193677306175232,1.57884681224823,,,,,
3.4155119999999783,-27.64860552440796,-12.197863393931684,-151.51979557961357,-1.740189790725708,1.0667386054992676,0.9229488968849182,,,,,
3.4248870000000124,-30.641196823187954,-13.147606969758279,-153.242119363658,-1.3859697580337524,0.9071916341781616,0.3536252975463867,,,,,
3.434270999999967,-33.16238996890184,-15.220286330345372,-154.630855085079,-1.0494276285171509,0.7096014618873596,0.07966333627700806,,,,,
3.4624170000000163,-40.03648373197736,-25.156546766404574,-158.74450644286222,0.420616090297699,0.5017361640930176,-0.7074170708656311,,,,,
3.4811970000000088,-44.33675645471403,-31.614939840192232,-162.92462820969996,1.4507341384887695,0.23085924983024597,-1.3371999263763428,,,,,
3.49058500000001,-45.961665587215556,-33.97658799632489,-165.44341201060442,1.7879445552825928,0.16669586300849915,-1.5219647884368896,,,,,
3.499963999999977,-47.05300101782766,-35.74973337503581,-168.14283172043878,1.9994769096374512,0.15754306316375732,-1.660226583480835,,,,,
3.509344999999996,-47.66780351662396,-36.95645010555083,-170.7301469670352,2.1103711128234863,0.12395760416984558,-1.65688157081604,,,,,
3.518718999999976,-48.057392829183385,-37.603951798332915,-172.79699140951982,1.9796233177185059,0.21327966451644897,-1.5726373195648193,,,,,
3.546876999999995,-48.79986194633459,-37.21566449435532,-176.31375141212988,1.1029462814331055,0.6826415657997131,-0.813220739364624,,,,,
3.5564390000000117,-49.0237285797878,-36.473564287599125,-177.2266185764397,0.8246592879295349,0.6681019067764282,-0.4611925184726715,,,,,
3.565827000000013,-49.390431335623745,-35.505169152476256,-178.27349205229518,0.5618826150894165,0.495272159576416,-0.16120070219039917,,,,,
3.5752150000000142,-50.016703068401206,-34.28835370354874,-179.30841666071439,0.2020767331123352,0.25535616278648376,0.2169550061225891,,,,,
3.5845899999999915,-50.93470308161449,-32.823395899048045,179.70945855268886,-0.2924327850341797,-0.21007472276687622,0.6498954892158508,,,,,
3.593972000000008,-52.165683741188495,-31.054969864035012,178.95675998932256,-1.0809580087661743,-0.762281060218811,1.0151400566101074,,,,,
3.6031810000000064,-53.594564669183946,-29.010058309771473,178.2534665874121,-2.1317131519317627,-1.2286248207092285,1.1189302206039429,,,,,
3.6219429999999875,-55.96401991131173,-25.54839060647804,176.5732968323191,-3.2436118125915527,-1.7240650653839111,0.6205770373344421,,,,,
3.631326999999999,-56.536881304151485,-25.151503026003407,175.94458207351983,-2.8859922885894775,-1.573595404624939,0.21481406688690186,,,,,
3.650274999999965,-56.443907750526485,-28.170343817529133,177.08301271319377,-1.197988748550415,-0.7332733869552612,-0.11860442161560059,,,,,
3.6596629999999664,-55.991144889379584,-30.8477257468653,179.12585400428674,-0.3948998749256134,-0.31970852613449097,0.026093900203704834,,,,,
3.6784260000000017,-55.63980381126394,-35.81512107401998,-175.21289730710814,0.4557393193244934,0.16798901557922363,0.34288063645362854,,,,,
3.6878209999999854,-55.855610323921496,-37.30112982374934,-172.80182045299063,0.5415352582931519,0.4231274425983429,0.11885952949523926,,,,,
3.7065769999999816,-55.92989644689723,-38.63357960949022,-170.90631960595672,0.7510980367660522,0.7922509908676147,-0.4922759532928467,,,,,
3.71578599999998,-55.86846950307935,-38.86592151624677,-170.79298542843605,0.9548475742340088,0.9312006235122681,-0.8590093851089478,,,,,
3.7251620000000116,-55.86123011570841,-38.84695243584206,-170.54707875042902,1.3167133331298828,0.9918292760848999,-1.1378555297851562,,,,,
3.743942000000004,-56.24284298270922,-37.44470400780891,-169.08904561963377,2.3339200019836426,1.0377933979034424,-1.342763900756836,,,,,
3.753315999999984,-56.351022702686954,-35.59937326746437,-168.37006245369895,2.6455252170562744,0.9708880186080933,-1.3165128231048584,,,,,
3.7720840000000067,-55.84227919620726,-29.140818040635743,-168.82558646363844,2.5186400413513184,0.587088406085968,-1.0994391441345215,,,,,
3.781474000000003,-55.272948242983276,-24.74857848279928,-170.09563691357985,2.242676019668579,0.3984411060810089,-0.9506994485855103,,,,,
3.7908519999999726,-54.593404264964356,-19.921762821143414,-172.00287272052046,1.878447413444519,0.27681833505630493,-0.7106335163116455,,,,,
3.8004119999999944,-54.05313879809665,-14.89016954228057,-174.48067630026728,1.533752202987671,0.14309161901474,-0.4531387686729431,,,,,
3.809800999999993,-53.927540345723735,-9.500767692441702,-177.29374067792045,0.8460772037506104,0.20840853452682495,-0.2984318733215332,,,,,
3.8191640000000007,-54.38568290340174,-3.7562857719733573,179.5947068109153,-0.4332197904586792,0.3102709650993347,-0.5112994313240051,,,,,
3.8283950000000004,-55.56253101607832,2.0943350658180866,176.11694277410524,-1.937659502029419,0.15099120140075684,-0.6378492116928101,,,,,
3.8471629999999664,-59.84662916337395,13.069637360740613,168.30085578698993,-3.2218315601348877,0.03464025259017944,-0.9987860321998596,,,,,
3.8754749999999945,-64.15832512943635,22.928943828602158,161.30098899018446,-2.7255632877349854,0.2791566848754883,-0.47758492827415466,,,,,
3.9036389999999983,-63.835419488382904,26.363748850188834,161.84971095576498,-2.0103330612182617,0.19954711198806763,-0.36850425601005554,,,,,
3.913022000000012,-63.57499144903795,26.851026839946883,162.02189484782411,-1.442749261856079,0.2641160488128662,-0.29457634687423706,,,,,
3.9224049999999693,-63.104740092264414,26.935082137169683,162.27045663560392,-0.9890648722648621,0.2965945601463318,-0.11342814564704895,,,,,
3.9317859999999882,-62.50791437931766,26.736993373966182,162.64954564427168,-0.5658818483352661,0.31276702880859375,0.04936736822128296,,,,,
3.9411850000000186,-61.943140821387416,26.414086726855636,163.06418395383832,-0.18930619955062866,0.29088160395622253,0.19899249076843262,,,,,
3.959972999999991,-61.38370000168363,25.854238165574678,163.8237818887348,0.46316179633140564,0.1826609969139099,0.216806560754776,,,,,
3.9693429999999807,-61.32272350186901,25.601233262453338,164.2236911692098,0.8425077199935913,0,0.15721815824508667,,,,,
3.9972930000000133,-60.009428177280505,25.537517910319725,167.01916292308047,2.2379164695739746,-0.6583554744720459,0.09528222680091858,,,,,
4.00667900000002,-58.79690042486389,26.228193548038565,168.97281772314852,2.6269617080688477,-0.7999435067176819,0.1730724573135376,,,,,
4.025439000000006,-55.598441515924236,28.62622435217403,173.62189169231067,3.0376715660095215,-0.7414699196815491,0.32024210691452026,,,,,
4.03482600000001,-53.90118732372363,30.513534022623503,175.67743616782377,2.9208953380584717,-0.6549296379089355,0.26905786991119385,,,,,
4.0536069999999995,-50.78510270428918,36.48397130069193,178.85679427079467,1.80409836769104,-0.19763261079788208,-0.26238715648651123,,,,,
4.062987000000021,-49.038168078703336,40.48070607948096,-179.27579077666758,0.940276026725769,0,-0.7289796471595764,,,,,
4.0817369999999755,-41.384193720609495,49.40449099787086,-169.80805594312847,-0.536082923412323,0.6649197936058044,-1.2107244729995728,,,,,
4.0911310000000185,-33.22524526034177,53.0044938656195,-160.006697696152,-1.0930590629577637,1.4618808031082153,-1.2085541486740112,,,,,
4.100512999999978,-22.190219424396595,54.83568835314165,-147.27709580558266,-1.8823659420013428,2.3993654251098633,-0.909042239189148,,,,,
4.110083999999972,-11.363747082512152,54.478851439785345,-135.0363965161823,-2.498652458190918,3.2252354621887207,-0.6101314425468445,,,,,
4.138226999999972,-1.1959561952550668,49.025727375701194,-124.5347799515174,-1.2931411266326904,3.2901182174682617,0.4282601475715637,,,,,
4.147616999999968,-2.62584629401999,47.445474979168765,-126.0311950790351,-0.8288787603378296,2.7276711463928223,0.5253767967224121,,,,,
4.166381000000001,-5.779933296169936,43.959761301754554,-127.13354088047603,-0.3057674765586853,1.4513359069824219,0.10805583000183105,,,,,
4.185164999999984,-6.880784895005514,39.60499674892448,-123.30093142133956,-0.2096845507621765,0.5334551334381104,-0.3344991207122803,,,,,
4.194548999999995,-7.190257659154613,37.079866084671316,-120.51453412359457,-0.2420516014099121,0.13401494920253754,-0.5221517086029053,,,,,
4.203940999999986,-7.685065456310985,34.38584662207891,-117.77060467415335,-0.22555965185165405,-0.24905362725257874,-0.7182935476303101,,,,,
4.213145999999995,-8.467714508333641,31.553187280955893,-115.36884787417071,-0.1713845133781433,-0.7028995752334595,-0.8958175778388977,,,,,
4.231895000000009,-10.575499307260186,25.593560645638494,-112.71251374207495,0.30143916606903076,-1.591522455215454,-1.0046606063842773,,,,,
4.241277999999966,-11.656521987476113,22.409791217442365,-112.3222925599822,0.665239691734314,-1.7566759586334229,-1.0169250965118408,,,,,
4.260029999999972,-12.833807186898277,16.080668060512647,-111.487889890495,0.7542510628700256,-1.8347057104110718,-0.8126741647720337,,,,,
4.2694230000000175,-12.897661186993771,13.248881289980968,-110.47103850871667,0.6681345701217651,-1.8259892463684082,-0.8831908106803894,,,,,
4.278814000000011,-12.575623300703638,10.611935657623503,-108.90104143057019,0.4571898579597473,-1.683098316192627,-1.0871737003326416,,,,,
4.288195999999971,-11.765795579663042,7.960302585882748,-106.96872232318623,0.20192524790763855,-1.504835605621338,-1.1615848541259766,,,,,
4.306966999999986,-8.731005703179918,1.9165260282944017,-103.31929794776671,0.3823630213737488,-0.9426310062408447,-1.1198633909225464,,,,,
4.335102000000006,-1.8822003012604438,-9.040622882922484,-98.07503506399506,1.7216671705245972,0,-0.781352698802948,,,,,
4.344493,0.3991181552562608,-12.916343979030808,-95.72375338724487,2.1549863815307617,0.2994304597377777,-0.5828105211257935,,,,,
4.363424000000009,4.025470403161564,-19.90716738060215,-91.67705010772966,2.9061710834503174,0.9995435476303101,-0.048547565937042236,,,,,
4.37281200000001,5.469140868837716,-22.14747162257626,-90.70672296654422,3.111724853515625,1.0582796335220337,0.2540777325630188,,,,,
4.391586000000018,7.3426598601003485,-22.505710784978497,-90.22655036439288,2.3517372608184814,1.2373515367507935,0.08706021308898926,,,,,
4.40097099999997,7.833464936857055,-20.808754380783775,-89.99378428967701,1.5255067348480225,1.3583135604858398,0.06751757860183716,,,,,
4.410367000000008,8.15625279573982,-18.484322188127493,-89.6270889063229,0.6147948503494263,1.4565715789794922,0.09793728590011597,,,,,
4.429120000000012,8.353850335872295,-14.053865427664558,-88.69035909335372,-1.0370508432388306,1.6529523134231567,0.6672157645225525,,,,,
4.457266000000004,6.568206851799883,-11.521263851459295,-87.46580690141242,-2.3688888549804688,1.4497642517089844,1.3831318616867065,,,,,
4.485254999999995,2.00730599953574,-14.629385566466405,-86.4899793265258,-1.7673141956329346,0.5751330852508545,0.43064504861831665,,,,,
4.494804999999985,0.4128910700319475,-16.820977338260782,-86.50322708325521,-1.2419545650482178,0.23978616297245026,0.10152608156204224,,,,,
4.513580999999988,-2.648959977263753,-21.9737855599008,-86.77519841993006,-0.2548615336418152,-0.293617308139801,-0.493266224861145,,,,,
4.522790999999984,-4.220030720342836,-24.527520655352838,-86.80011200098512,0.22366711497306824,-0.4208102226257324,-0.8306819796562195,,,,,
4.532174999999995,-5.783280958257536,-26.966893304909004,-86.73292329468268,0.794834315776825,-0.6243793964385986,-1.2154033184051514,,,,,
4.560301999999979,-9.624008651781699,-33.07484499341421,-85.45924870642256,2.1009409427642822,-1.184829831123352,-1.8080259561538696,,,,,
4.569708999999989,-10.239248732105318,-34.262531524766345,-84.94576359044967,2.1798255443573,-1.1675175428390503,-1.8400616645812988,,,,,
4.579075999999986,-10.362926093007312,-34.83760274675478,-84.53860468720386,2.2720870971679688,-1.1875262260437012,-1.7506954669952393,,,,,
4.5884719999999675,-10.069896430965427,-34.83432084531994,-84.29183913270153,2.1999099254608154,-1.0528156757354736,-1.5984842777252197,,,,,
4.597846000000004,-9.425136989902546,-34.32434254810806,-84.29300488308671,1.8258662223815918,-0.8112356066703796,-1.428131341934204,,,,,
4.607231000000013,-8.539533942154423,-33.32517036063268,-84.41619064583791,1.2828130722045898,-0.5247224569320679,-1.3218715190887451,,,,,
4.61661399999997,-7.434578387782717,-31.91330071862757,-84.54153276161554,0.6769752502441406,-0.16734907031059265,-1.0920614004135132,,,,,
4.6261670000000095,-6.075868669169678,-30.244711119411647,-84.75297141604203,0,0.2683368921279907,-0.6560251116752625,,,,,
4.635590999999977,-4.499703829325949,-28.434407216730435,-85.15306830729133,-0.6530463695526123,0.6865527033805847,-0.10244369506835938,,,,,
4.644771999999989,-2.8604995358584717,-26.563864622046953,-85.71566095029354,-1.2782533168792725,1.0877357721328735,0.45965516567230225,,,,,
4.663539000000014,-0.3400494691071508,-23.342644368339442,-86.7577712960642,-1.8367999792099,1.5543609857559204,1.3962020874023438,,,,,
4.673109000000011,0.24178395372174136,-22.490997889876592,-87.09103636410535,-1.8096894025802612,1.5918611288070679,1.6597824096679688,,,,,
4.691870999999992,0.12640582287627763,-22.418093401176797,-87.56092109963826,-1.5918415784835815,1.4065725803375244,1.6705145835876465,,,,,
4.701249000000018,-0.4413602048070378,-22.699824769983643,-88.06734802677835,-1.4177743196487427,1.3161662817001343,1.451606035232544,,,,,
4.720020999999974,-2.2393459978133397,-23.04642070850644,-91.03968301420362,-0.6798798441886902,1.3171989917755127,0.8060805797576904,,,,,
4.729400999999996,-3.343574326406318,-23.04598231478243,-93.8037218252707,-0.17552480101585388,1.2380439043045044,0.40751320123672485,,,,,
4.738782000000015,-4.592080340640919,-22.931141487640236,-97.41796192418991,0.38410428166389465,1.1036573648452759,-0.07158362865447998,,,,,
4.747985999999969,-5.9542777346454345,-22.747014704264846,-101.76747050625119,1.1122338771820068,0.9308773279190063,-0.65641188621521,,,,,
4.7573770000000195,-7.302309570737856,-22.525524286330175,-106.53400354237542,1.802905797958374,0.739362359046936,-1.1016592979431152,,,,,
4.7761429999999905,-9.483460373308914,-21.67683014803161,-116.69163301922771,2.8492374420166016,0.3434295058250427,-1.3701798915863037,,,,,
4.785521000000017,-10.49698361431778,-20.64862495950004,-121.57675677385956,3.1385204792022705,0.2705184519290924,-1.2595062255859375,,,,,
4.794911000000013,-11.686430685948102,-18.978508971701803,-125.9642663258406,3.067122459411621,0.34599441289901733,-1.1036721467971802,,,,,
4.813678999999979,-15.13606981415939,-13.810061801680689,-134.0020184680357,2.408698797225952,0.4912171959877014,-0.815893292427063,,,,,
4.823053000000016,-17.672292259768533,-10.5505122028238,-138.0386503095389,1.8640599250793457,0.5170606374740601,-0.7756617069244385,,,,,
4.832441000000017,-20.852752962657885,-7.111520755530178,-142.50254172791813,1.3326364755630493,0.4154450297355652,-0.7806671261787415,,,,,
4.851212999999973,-28.90300547090429,-0.5281872616818059,-152.86452547965496,-0.0438663586974144,0,-0.9120049476623535,,,,,
4.860603999999967,-33.2383646136337,2.378188506593538,-158.47242994015875,-1.0950572490692139,-0.2943984866142273,-0.8556889295578003,,,,,
4.87936400000001,-41.06631290299308,5.571554082549245,-168.89544954407984,-2.3704843521118164,-0.8167656064033508,-0.5366494059562683,,,,,
4.888753000000008,-43.84559907352275,5.058365892195321,-172.18899757064509,-2.6682987213134766,-1.0272586345672607,-0.6710705161094666,,,,,
4.898308999999983,-45.428679662736904,3.973336139045138,-173.6014099476826,-2.900188684463501,-1.1539891958236694,-0.32289227843284607,,,,,
4.9358629999999835,-45.337521643600056,-3.857249132885529,-173.66302093260137,-0.6904460191726685,-0.13703739643096924,-0.2640950679779053,,,,,
4.954611,-43.65175939268666,-9.956516519601648,-174.66900812802265,0.2989974021911621,0.09475952386856079,-0.3739856481552124,,,,,
4.96401400000002,-42.85782319847548,-12.974620195951026,-175.19350767143885,0.6790152788162231,0.1696864664554596,-0.4927830100059509,,,,,
4.973201000000017,-42.1199273794502,-15.888913364982198,-175.66350628872274,1.0199182033538818,0.30540716648101807,-0.6128820776939392,,,,,
4.9825799999999845,-41.38479730096214,-18.810868919201944,-176.16685980593454,1.3086986541748047,0.4581683278083801,-0.6167667508125305,,,,,
4.991966999999988,-40.718685996209196,-21.81017373590142,-176.7806352196752,1.4589598178863525,0.5892978310585022,-0.604856014251709,,,,,
5.001353999999992,-40.35564302720729,-24.98916365214915,-177.5276105122897,1.8516383171081543,0.710616946220398,-0.41596654057502747,,,,,
5.010735000000011,-40.758101637813986,-28.303237904316738,-177.88620473503684,2.088843822479248,0.9037249088287354,-0.45537689328193665,,,,,
5.020127000000002,-42.038134413339904,-31.508586428234928,-177.51672622697782,2.02864408493042,1.024245262145996,-0.6161256432533264,,,,,
5.029506999999967,-43.925258619718264,-34.206713025227856,-176.61338258384595,1.9378505945205688,1.0397531986236572,-0.6917989253997803,,,,,
5.038892999999973,-45.959728670185235,-35.93276048654776,-175.47766750625584,1.9124637842178345,0.8641200065612793,-0.6748846173286438,,,,,
5.048440999999968,-47.634251665604566,-36.520178910284336,-174.52235396090407,1.7892694473266602,0.5703552961349487,-0.7382209300994873,,,,,
5.067208999999991,-49.250382966602835,-34.85345280387106,-173.77671230237212,0.6360838413238525,-0.046888530254364014,-0.14356377720832825,,,,,
5.07660199999998,-49.563790862140145,-33.18641505535627,-173.91158083293564,-0.11596599221229553,-0.1913987398147583,0.2784833312034607,,,,,
5.085982000000001,-49.79689878975112,-31.309469175418855,-174.11511516330538,-1.0381536483764648,-0.2814982533454895,0.7399850487709045,,,,,
5.095179999999971,-50.04271866452192,-29.424070737364964,-174.3455565172029,-1.983811378479004,-0.3483719229698181,1.1825309991836548,,,,,
5.104561999999987,-50.326761147558514,-27.869531181639925,-174.70405993281324,-2.735677719116211,-0.3612159490585327,1.4803481101989746,,,,,
5.113958999999966,-50.6428142853133,-27.024614833080825,-175.22366292001445,-3.0846872329711914,-0.3423658013343811,1.5632476806640625,,,,,
5.123340999999982,-51.05712077758145,-27.13945366528946,-175.72687938561816,-3.039379835128784,-0.24897265434265137,1.465848445892334,,,,,
5.142113999999992,-52.24612406496503,-30.420583345274675,-175.65846980201184,-1.8554129600524902,-0.05679023265838623,0.810592770576477,,,,,
5.151500999999996,-52.994956873913154,-33.12865242304133,-174.77168763040828,-1.1040536165237427,0.05388689041137695,0.5317224860191345,,,,,
5.170462999999984,-54.80068690981683,-38.96868590207696,-171.98409576273954,0,0.1253664493560791,0.24478468298912048,,,,,
5.179845999999998,-55.79033612014597,-41.49211500385964,-170.62826949516273,0.20686376094818115,0.03653538227081299,0,,,,,
5.198617000000013,-57.46944224393709,-45.161101674313436,-168.63238588300763,0.29619717597961426,0.18920445442199707,-0.4633699953556061,,,,,
5.217355999999995,-58.53569754105219,-48.23072202532861,-167.03876740846283,0.5222445130348206,0.3829957842826843,-0.9047667980194092,,,,,
5.226736000000017,-59.08774387230161,-49.718760954422486,-165.76758857576155,0.8172739148139954,0.4795547127723694,-1.0263395309448242,,,,,
5.245518000000004,-60.59093499797521,-52.35667091823704,-162.28829980528127,1.424922227859497,0.5942674279212952,-0.9670134782791138,,,,,
5.2548889999999915,-61.22979198961662,-53.2492446543884,-160.8049109746327,1.5821565389633179,0.6376978158950806,-0.9206864833831787,,,,,
5.273657000000014,-61.32606006675032,-53.61598304611673,-159.82744997198412,1.481231451034546,0.6319628953933716,-0.842430591583252,,,,,
5.283051999999998,-60.91246176486539,-53.09623109225923,-160.14012442737135,1.3397574424743652,0.6404026746749878,-0.8194620609283447,,,,,
5.292423999999983,-60.4339188645899,-52.192079742588525,-160.5980961895253,1.202688217163086,0.5898078680038452,-0.7775635719299316,,,,,
5.301814999999976,-60.009469792271716,-50.93977422960761,-160.96739069321916,1.1208702325820923,0.5340599417686462,-0.8095824718475342,,,,,
5.31119799999999,-59.498758663340304,-49.30731674013194,-161.2236241773195,1.2394202947616577,0.42074859142303467,-0.8413916230201721,,,,,
5.329973999999993,-57.43928708897874,-44.43213882327115,-161.91112807404969,1.3290491104125977,0.12823978066444397,-0.7300750017166138,,,,,
5.339342999999985,-55.67618515786271,-40.938696872230466,-162.71314176412113,1.1154654026031494,0.12317883968353271,-0.49672627449035645,,,,,
5.348716999999965,-53.49415383576801,-36.750298646809185,-164.03028970470416,0.4999229311943054,0.17287671566009521,-0.10384777188301086,,,,,
5.35812199999998,-51.107068453153424,-31.960759495587087,-165.8541040354168,-0.2943595051765442,0.17233264446258545,0.3771762251853943,,,,,
5.367319000000009,-48.88253143921533,-26.670422809027826,-168.27810763492067,-1.109359860420227,0.24229928851127625,0.6362566351890564,,,,,
5.376708000000008,-47.166208750583394,-21.149772141448153,-171.2930810752439,-1.9499742984771729,0.21691113710403442,0.677169680595398,,,,,
5.38608899999997,-46.213222791639275,-15.537341991320236,-174.75368397171127,-2.9884626865386963,0.15287619829177856,0.6694473028182983,,,,,
5.404855999999995,-46.69278193838222,-5.29831535461127,177.99815206314594,-3.2406718730926514,0.12799072265625,0.21151745319366455,,,,,
5.414233999999965,-47.594379745830174,-1.7579591223371676,174.89049899389036,-2.450180768966675,0.08240705728530884,0,,,,,
5.423810000000003,-48.458842734860774,0.5766561457658332,172.73884339947585,-1.7584477663040161,0,0.12010818719863892,,,,,
5.433190999999965,-49.27832314153818,1.978192988763507,171.60550592721984,-1.0788533687591553,-0.026298701763153076,0.17783987522125244,,,,,
5.451952000000006,-51.07734073166934,3.5675174790818995,171.48515981326344,-0.41504010558128357,0.16940873861312866,0.2445065975189209,,,,,
5.461354999999969,-52.13063765562712,4.320036351523968,171.7389146308772,-0.2308935523033142,0.37407127022743225,0.28188860416412354,,,,,
5.470727000000011,-53.13128589835637,5.034037173661878,171.77525515888715,0.049926381558179855,0.6153843402862549,0.297802209854126,,,,,
5.480122999999992,-53.867749518701274,5.652499170845454,171.47859583260905,0.5059734582901001,0.7451647520065308,0.32113128900527954,,,,,
5.489305000000002,-54.23922523512598,6.393316008916386,170.99302823886498,0.9602274894714355,0.7166193127632141,0.42913925647735596,,,,,
5.508075000000019,-54.842555003366236,8.807292564416068,169.60483579483218,1.7022655010223389,0.44583073258399963,0.5875151753425598,,,,,
5.517460999999969,-55.62433828214352,10.667154848875862,168.49333649696723,1.969228744506836,0.21499276161193848,0.585831344127655,,,,,
5.5268330000000105,-57.01843801779588,12.953872000342361,166.96254719979228,2.2149596214294434,0.05889648199081421,0.561130940914154,,,,,
5.536225999999999,-59.00279803445078,15.499889727683927,164.98683189693813,2.2882847785949707,0.036672234535217285,0.4228714406490326,,,,,
5.545606000000021,-61.54930129528421,18.133343811809503,162.56645152619996,2.193929433822632,0.19920390844345093,0.20726728439331055,,,,,
5.554990999999973,-64.59972323901091,20.680622487325703,159.67578893236805,1.977705717086792,0.4195861220359802,0.07961204648017883,,,,,
5.564374999999984,-68.12751838323518,23.088704438287696,156.3021725545567,1.7827064990997314,0.6350536346435547,0,,,,,
5.583213000000001,-76.61282069865982,27.55782030624964,148.37679890947038,1.1831693649291992,1.0047070980072021,-0.5241831541061401,,,,,
5.592523999999969,-81.33270786140588,29.450224256968657,143.9666150910132,0.4606728255748749,0.9057365655899048,-0.8812932372093201,,,,,
5.601909999999975,-86.1777552523077,31.08745095137459,139.40913299383104,-0.325217068195343,0.6846545338630676,-1.0801928043365479,,,,,
5.611308000000008,-91.00545232594345,32.54725688741887,134.73873141865033,-1.0955920219421387,0.6864190101623535,-1.4157932996749878,,,,,
5.620869999999968,-95.50799570862759,33.65241424874762,129.7502317042134,-1.527661919593811,0.4945414066314697,-1.3899695873260498,,,,,
5.63024200000001,-99.61707402163275,34.24080136837578,125.25871459214643,-1.4098310470581055,0.35268938541412354,-1.6679927110671997,,,,,
5.639621999999974,-103.13533715458105,34.36982071340631,121.56418250188844,-1.252055048942566,0.4524628818035126,-1.9330391883850098,,,,,
5.649000000000001,-105.90096226675733,34.146843944452336,118.63667827537866,-1.4133836030960083,0.5360832214355469,-2.0353922843933105,,,,,
5.6583799999999655,-108.01297204991616,33.6049100819487,116.25255523797411,-1.8231043815612793,0.4999921917915344,-2.1138947010040283,,,,,
5.667765999999972,-109.6280149110676,32.81576069980901,114.25737890034438,-2.316283702850342,0.3526361286640167,-2.2143115997314453,,,,,
5.677159000000017,-110.82533032398212,32.042361929538316,112.6468129523821,-2.5211687088012695,0.04784190654754639,-2.0512988567352295,,,,,
5.686525000000017,-111.74268953923908,31.69409510945671,111.50507821427414,-2.301118850708008,-0.0907435417175293,-1.89740788936615,,,,,
5.695921999999996,-112.30964303594529,32.10103249485964,111.01501174114149,-1.8092851638793945,-0.06345683336257935,-1.7492635250091553,,,,,
5.705308000000002,-112.40266082086279,33.3692707500044,111.25467092463902,-1.2943702936172485,0,-1.3867971897125244,,,,,
5.714694000000009,-112.0579792869276,35.34374888762932,112.13060918269251,-0.888698935508728,0.11110818386077881,-0.8255949020385742,,,,,
5.7240790000000175,-111.40493164380659,37.58241168862348,113.51316069927731,-0.5100659728050232,0.37133753299713135,-0.277845174074173,,,,,
5.73345599999999,-110.60703367775456,39.59325902886583,115.18386399926393,0,0.5895339846611023,0.19751659035682678,,,,,
5.742662999999993,-109.93346729013223,41.15973963890581,116.65738465345001,0.5315160751342773,0.6084751486778259,0.7378365993499756,,,,,
5.752031999999986,-109.83030571454688,42.223670825377454,117.44442462065764,1.1219538450241089,0.4350583553314209,1.3892202377319336,,,,,
5.761437999999998,-110.66391633046912,42.73370924643022,117.3508850738616,1.6643431186676025,0.27076539397239685,2.004767417907715,,,,,
5.770800000000008,-112.40412415227334,42.66714943498182,116.69919819478325,1.9326213598251343,0.24524980783462524,2.4042630195617676,,,,,
5.780276000000015,-114.91022322569269,42.06457866477022,115.43425349039252,2.0231831073760986,0.2819608747959137,2.500389575958252,,,,,
5.789660999999967,-118.1327036323471,41.067903912025216,113.69102835649083,1.9101285934448242,0.328640341758728,2.532451629638672,,,,,
5.799036999999998,-122.08789779027745,39.823312685300166,111.53999961337401,2.021942138671875,0.29202690720558167,2.490767240524292,,,,,
5.808422000000007,-126.9831156293467,38.543441412878025,108.9368693878023,2.275467872619629,0.38567161560058594,2.201448678970337,,,,,
5.817813000000001,-132.67623373790755,37.33626888854019,105.84346583764884,2.1007399559020996,0.5796774625778198,1.562044382095337,,,,,
5.827200000000005,-138.64495910333775,35.95011507132764,102.48032749700796,1.4037408828735352,0.6129642128944397,0.7084266543388367,,,,,
5.836679000000004,-144.395875109933,34.11887596403248,99.31011815572509,0.8441885113716125,0.36022689938545227,-0.09866076707839966,,,,,
5.846069,-149.6138422396743,32.025827456418966,96.39757742212029,0.531514585018158,0.16923528909683228,-0.9010089635848999,,,,,
5.855457999999999,-153.99252458589288,29.933320030760715,93.97604333447407,0.12005335092544556,0.1674797534942627,-1.5701358318328857,,,,,
5.864847999999995,-157.35733131859902,27.875635156714434,92.09703563358093,-0.35009604692459106,0.3225049376487732,-2.0721511840820312,,,,,
5.874229000000014,-159.700829637987,25.80808649213688,90.7175594495547,-0.9388554096221924,0.5734042525291443,-2.493572950363159,,,,,
5.8836109999999735,-161.11557852259315,23.738556626478037,89.88731697344892,-1.4928332567214966,0.6203125715255737,-2.7148234844207764,,,,,
5.892989,-161.95412029658488,21.893262129380968,89.63220214440703,-1.7831100225448608,0.6292856931686401,-2.8677988052368164,,,,,
5.902381999999989,-162.50955310765588,20.67336490571613,89.855365212483,-1.8817607164382935,0.644514262676239,-2.973583221435547,,,,,
5.911763000000008,-162.93292707214624,20.40269828029698,90.29599991755141,-1.9779282808303833,0.5991151332855225,-2.9413974285125732,,,,,
5.9211669999999685,-163.2549528587291,21.135361817619195,90.65839029179187,-1.880816102027893,0.5159084796905518,-2.8004913330078125,,,,,
5.930531999999971,-163.5773750062971,22.704508524822437,90.5933810997179,-1.5857902765274048,0.38842764496803284,-2.4945273399353027,,,,,
5.93990500000001,-164.1873801980044,24.81392971942204,89.91407561142783,-1.3608005046844482,0.33713048696517944,-2.0414953231811523,,,,,
5.95165099999997,-165.12317864506397,27.09876234688839,88.90928680304498,-1.0297080278396606,0.38447731733322144,-1.5920593738555908,,,,,
5.958672999999976,-166.26813498354178,29.277622404035444,87.90542656611413,-0.5301523208618164,0.46399152278900146,-1.1232125759124756,,,,,
5.968037999999979,-167.46380052925107,31.186286545579872,87.03765787055414,0.10618779063224792,0.43774470686912537,-0.4520041346549988,,,,,
5.977260000000001,-168.50144920795603,32.668003588947684,86.34990290409948,0.7076356410980225,0.28883683681488037,0.5255327224731445,,,,,
5.986718999999994,-168.98589809373308,33.53660062888565,86.0413692418025,1.2981266975402832,0.16925422847270966,1.5989835262298584,,,,,
5.996100000000013,-168.60598909171776,33.63833863562906,86.40625564414371,1.7471017837524414,0.05272579938173294,2.414102792739868,,,,,
6.005472999999995,-167.5950715125873,32.94351506123252,87.20238396773625,1.807725191116333,-0.1579025238752365,2.984386444091797,,,,,
6.014852000000019,-166.56027500992928,31.45951750476516,87.91242618609306,1.5810935497283936,-0.3761138319969177,3.3757925033569336,,,,,
6.024243000000013,-166.13373857565432,29.355285328233748,88.23015106465071,1.37740159034729,-0.5167685747146606,3.437234878540039,,,,,
6.033618999999987,-166.64247065654797,26.901541088640393,88.00798349504608,1.298156976699829,-0.696770191192627,3.279358386993408,,,,,
6.043019000000015,-168.23920708964584,24.34951199995838,87.27389778070611,1.3868327140808105,-0.7903016805648804,2.842947483062744,,,,,
6.052392999999995,-170.5588881818689,21.87518262061691,86.24707582450984,1.304173231124878,-0.7098265886306763,1.9817092418670654,,,,,
6.061725999999965,-172.8064352149491,19.509944510594412,85.3179127920753,0.9019982814788818,-0.683506190776825,1.0066574811935425,,,,,
6.071278000000007,-174.60612067859194,17.177375609091484,84.75804938062431,0.6005711555480957,-0.7073377370834351,0.03811758756637573,,,,,
6.080651999999986,-175.79786045027456,14.845326930028303,84.48704838611958,0.3284313380718231,-0.6294494867324829,-0.8254726529121399,,,,,
6.090039999999988,-176.23110223592624,12.535653019879872,84.40029741102728,0,-0.5021578669548035,-1.5249974727630615,,,,,
6.0994269999999915,-176.0629875452995,10.294454375674093,84.46666829582944,-0.25146719813346863,-0.29039260745048523,-2.0235228538513184,,,,,
6.108796999999981,-175.47163301447253,8.263659508569637,84.50778244822543,-0.4687131941318512,0.08594189584255219,-2.384575843811035,,,,,
6.1181909999999675,-174.59937518170028,6.638251790725038,84.48167404566581,-0.7811010479927063,0.5609933137893677,-2.6462254524230957,,,,,
6.127572999999984,-173.62460846533912,5.5918933820802375,84.54745315404642,-1.1550111770629883,0.889119029045105,-2.762413501739502,,,,,
6.136952000000008,-172.80446688642309,5.2380997007527235,84.80031851309528,-1.4510302543640137,0.9821503162384033,-2.7325305938720703,,,,,
6.146334999999965,-172.39393626319594,5.69922943480334,85.23517942612645,-1.467174768447876,0.9156805872917175,-2.663938045501709,,,,,
6.155734999999993,-172.36449467754218,7.1812035629706115,85.772681251834,-1.3297216892242432,0.7713539600372314,-2.5939252376556396,,,,,
6.165111999999965,-172.4547669097678,9.83458417539948,86.29865479443316,-1.1414297819137573,0.5300288796424866,-2.43190598487854,,,,,
6.174494999999979,-172.49880751720355,13.644801567467407,86.78102604130984,-0.9984967112541199,0.3088880181312561,-2.1670589447021484,,,,,
6.183874000000003,-172.14827584053555,18.485390260417155,87.52829440552887,-0.7443408370018005,0.2335072159767151,-1.9374897480010986,,,,,
6.193257000000017,-171.21166653603072,24.19534132691314,88.64217359389639,-0.3158119320869446,0.09544514119625092,-1.7144776582717896,,,,,
6.2026539999999954,-169.9192749544955,30.574824724636688,90.44346536475616,0.1470491588115692,0,-1.3861427307128906,,,,,
6.212026999999978,-167.98099531206165,37.35980508124964,93.42440723039489,0.6170592904090881,0.13062602281570435,-1.0154906511306763,,,,,
6.221237999999971,-164.85681015430288,44.169451648707195,97.85180021321855,1.1940466165542603,0.4347982406616211,-0.6891459226608276,,,,,
6.230615999999998,-160.0823930981363,50.56129881308328,103.90873128117119,1.8563876152038574,0.6112098693847656,-0.21672117710113525,,,,,
6.240066000000013,-153.6219542608773,56.09093630224493,111.32254772702098,2.407130241394043,0.689998984336853,0.417574018239975,,,,,
6.249457000000007,-146.0955031116169,60.438455749619514,119.61124839535398,2.7086000442504883,0.6621996164321899,0.9992309808731079,,,,,
6.258841000000018,-138.32241100133731,63.52731756348393,127.99912973999469,2.9137485027313232,0.5335979461669922,1.3770321607589722,,,,,
6.268218999999988,-131.25900965748528,65.62713790899295,135.706694890551,2.834564685821533,0.3336683511734009,1.5580317974090576,,,,,
6.277611999999976,-125.47522763462382,67.1330884580662,142.16691248690384,2.6313514709472656,0.04539802670478821,1.580702543258667,,,,,
6.28700299999997,-121.0710998164363,68.44609819737522,147.28232926017142,2.532653570175171,-0.31433573365211487,1.5489330291748047,,,,,
6.296369999999968,-117.50600985483388,69.88579864523504,151.62560001068567,2.4608261585235596,-0.6199533343315125,1.3883445262908936,,,,,
6.3057529999999815,-114.01594408318002,71.43079976148795,155.92408298043136,2.2996888160705566,-0.7336395978927612,1.2654297351837158,,,,,
6.315138999999988,-110.20434919522707,72.82803905534766,160.57170359987455,2.095867872238159,-0.5671294331550598,0.9567011594772339,,,,,
6.324554999999975,-106.16216347211225,73.72392959549823,165.2886630526337,1.6975233554840088,-0.2561032176017761,0.6018818020820618,,,,,
6.33391899999998,-102.76641464959033,73.8687224227427,169.04488872664479,1.18192458152771,0.11607049405574799,0.25634947419166565,,,,,
6.343406000000016,-101.21905759904232,73.27173976690085,170.62566771699298,0.4408775568008423,0.48171886801719666,-0.062342993915081024,,,,,
6.352778999999998,-102.13265350306688,72.09493987011004,169.47100364512488,-0.5258636474609375,0.5902369618415833,-0.2547832727432251,,,,,
6.362167999999997,-105.36920382038046,70.55505966621843,165.89318054236583,-1.5702488422393799,0.49011993408203125,-0.4441791772842407,,,,,
6.371533999999997,-109.95711754909108,68.84093081573721,160.99500826022222,-2.56785249710083,0.4044596254825592,-0.7225034832954407,,,,,
6.38093299999997,-113.96004277243559,67.35684847231357,156.79507979697118,-2.966449737548828,0.19275449216365814,-0.8147748708724976,,,,,
6.390317999999979,-115.08031136211727,66.72733571657709,155.67673495804237,-2.883383274078369,0.11998039484024048,-1.3365336656570435,,,,,
6.399700999999993,-111.7959770355472,67.15736138837444,158.97255000663017,-2.93753981590271,0.17991650104522705,-1.3835442066192627,,,,,
6.409086000000002,-104.42302185781918,68.27015377002522,166.3161253252894,-2.8689303398132324,0.15485015511512756,-1.1114393472671509,,,,,
6.418463999999972,-93.7519051592539,69.29229603159322,177.01916807039152,-2.4130260944366455,0.2081793248653412,-1.0368070602416992,,,,,
6.427861000000007,-80.63630878526338,69.35851606439384,-169.8242734683249,-1.828725814819336,0.282699853181839,-0.979934573173523,,,,,
6.437252999999998,-67.08263964498734,67.9455640694987,-156.25957304499852,-1.223066806793213,0.3031688928604126,-0.9882795214653015,,,,,
6.446630999999968,-55.21283301732757,65.0041736334007,-144.39828446694003,-0.5998836755752563,0.3197172284126282,-0.9950587749481201,,,,,
6.456027000000006,-46.138660256381876,60.61327084640677,-135.27886587742253,0.14858955144882202,0.2823203206062317,-0.8717091083526611,,,,,
6.465294999999969,-39.98870335100609,54.89559773314264,-128.81468403520552,0.9183801412582397,0.277574747800827,-0.7170677185058594,,,,,
6.474679999999978,-36.33041060247947,47.948317914584784,-124.69648009995687,1.8605403900146484,0.39706143736839294,-0.7438405156135559,,,,,
6.4840580000000045,-33.887537505259054,40.47317890729898,-121.69576783850445,2.7028324604034424,0.493195116519928,-0.6842038035392761,,,,,
6.493434999999977,-31.766831718805985,33.44394508951037,-118.82799636120134,3.3227105140686035,0.3441317081451416,-0.6511172652244568,,,,,
6.502744000000007,-29.807323400006673,27.62533618287838,-115.98486550313305,3.584686279296875,0.19226491451263428,-0.5838360786437988,,,,,
6.512123999999972,-28.23448751124025,23.562760136054454,-113.46880363065554,3.2684566974639893,0,-0.3215183615684509,,,,,
6.521504999999991,-27.20280848743215,21.4356418588745,-111.77594431503172,2.7634835243225098,-0.09591150283813477,-0.4064893424510956,,,,,
6.530895999999984,-26.59634130579056,20.970783566173502,-111.05621612890958,2.396995782852173,-0.06410038471221924,-0.5272746682167053,,,,,
6.540278000000001,-26.28336459211892,21.44779432962861,-111.22817442231997,1.8613691329956055,-0.05462917685508728,-0.40094122290611267,,,,,
6.549666000000002,-26.33549559662457,22.12668229539107,-112.17062056094059,1.3287392854690552,-0.10510900616645813,-0.2102087140083313,,,,,
6.559168,-26.72945425251297,22.651661609274722,-113.50003006935364,0.8506750464439392,-0.045836061239242554,0,,,,,
6.568618000000015,-27.35698811397261,22.934945038633472,-114.81143246953559,0.36259713768959045,0.1355261504650116,0.11095404624938965,,,,,
6.578010000000006,-28.03874053961631,22.920864781635835,-115.8837847174201,-0.11904117465019226,0.36145758628845215,0.18159890174865723,,,,,
6.587372000000016,-28.58902805770054,22.606553843651703,-116.6033481054833,-0.7201916575431824,0.4661528766155243,0.40572673082351685,,,,,
6.596776999999975,-28.891318245107517,22.067756748489728,-116.91502614852772,-1.2927734851837158,0.5128982067108154,0.6596757173538208,,,,,
6.606141999999977,-28.848471476555257,21.37713557599645,-116.76935923014392,-1.6968109607696533,0.510539710521698,0.8603935837745667,,,,,
6.615520000000004,-28.379040026027578,20.500135476693433,-116.09945897748628,-1.869462490081787,0.4578859508037567,0.9878353476524353,,,,,
6.62491,-27.51143040956509,19.29051755295578,-114.9654016293914,-1.9178617000579834,0.4445268213748932,1.0470409393310547,,,,,
6.634296000000006,-26.45533017509198,17.558435760136753,-113.48810502165547,-1.8650450706481934,0.41083183884620667,1.0386459827423096,,,,,
6.64368300000001,-25.426117381798896,15.255314430950879,-111.9261687053509,-1.772330403327942,0.3578498065471649,0.9577053189277649,,,,,
6.653052000000002,-24.573584326848845,12.470402181908137,-110.54329417542529,-1.5818592309951782,0.30015018582344055,0.7961130142211914,,,,,
6.662451999999973,-24.022355251069996,9.287899412273202,-109.51857207612825,-1.2374584674835205,0.21704375743865967,0.5718576908111572,,,,,
6.67182200000002,-23.800918989371574,5.785705586361809,-108.86456726658169,-0.8568930625915527,0.1687239557504654,0.3314216136932373,,,,,
6.681215000000009,-23.815560810654546,2.0906332230148754,-108.44650921835813,-0.5152040719985962,0.1426847279071808,0.06151294708251953,,,,,
6.690602000000013,-23.9649803771759,-1.6649039108348491,-108.14535648119298,-0.17228162288665771,0.07391849160194397,-0.22215807437896729,,,,,
6.699978999999985,-24.232097719419965,-5.444190877167764,-107.82244420071912,0.2425769567489624,-0.03818574547767639,-0.5861870050430298,,,,,
6.709201000000007,-24.6006559211157,-9.239857993464089,-107.32624802060946,0.7105139493942261,-0.14958256483078003,-0.9811282157897949,,,,,
6.718569000000002,-25.019043795436602,-13.008686022009414,-106.65298013075717,1.0620038509368896,-0.2608906030654907,-1.3448060750961304,,,,,
6.727959999999996,-25.387835111933608,-16.636444428877113,-105.91038806063865,1.3055615425109863,-0.4090476930141449,-1.5495445728302002,,,,,
6.73733900000002,-25.63675150037821,-20.000169330930092,-105.25037004065214,1.6175451278686523,-0.5213650465011597,-1.8022034168243408,,,,,
6.7467229999999745,-25.66104545425116,-23.007602630480076,-104.77883960177964,1.9271512031555176,-0.574476957321167,-1.9942861795425415,,,,,
6.7561039999999934,-25.385666254735128,-25.522738250013045,-104.48234841215438,2.060863971710205,-0.5610702037811279,-1.967939853668213,,,,,
6.765480999999966,-24.779208577646635,-27.337759197031914,-104.22825664659595,1.9719862937927246,-0.45704638957977295,-1.913559913635254,,,,,
6.774873000000014,-23.76350494604674,-28.258939236294676,-103.92796390004911,1.6910722255706787,-0.18113496899604797,-1.77945876121521,,,,,
6.784247999999991,-22.247824050093406,-28.224380152354072,-103.52127818424945,1.2589918375015259,0.1449822038412094,-1.3762249946594238,,,,,
6.793635999999992,-20.320368469225546,-27.394433049661846,-102.95149650385748,0.7059677839279175,0.5118194818496704,-0.8218726515769958,,,,,
6.803212999999971,-18.169376726238813,-26.086334725130403,-102.30137954890179,0.09000414609909058,0.971799373626709,-0.1325780749320984,,,,,
6.812590999999998,-16.026807089536003,-24.694692653654023,-101.72755345211912,-0.4546220898628235,1.464003562927246,0.6346829533576965,,,,,
6.821954000000005,-14.233433085661128,-23.61438631509247,-101.32464431837494,-0.6172465085983276,1.956705927848816,1.2385666370391846,,,,,
6.83136300000001,-12.989597243659047,-23.18700630612141,-100.92653894249848,-0.40007296204566956,2.2652437686920166,1.5535669326782227,,,,,
6.840735999999993,-12.37233286609594,-23.431244843702903,-100.16320626431904,-0.1841438114643097,2.3193929195404053,1.7972846031188965,,,,,
6.850123999999994,-12.421913524229709,-24.047032124047213,-98.89323587964772,-0.2191137671470642,2.1433138847351074,1.8326683044433594,,,,,
6.859497999999974,-13.078423319395442,-24.626030005670668,-97.30566252605999,-0.28468507528305054,1.7158172130584717,1.647737741470337,,,,,
6.868900999999994,-14.273122562258498,-24.993846894997194,-95.54292114286403,-0.3754241168498993,1.2182421684265137,1.2502775192260742,,,,,
6.878277999999966,-15.864031111799004,-25.240473853217242,-93.71325389608104,-0.5015655159950256,0.7479427456855774,0.817181408405304,,,,,
6.887654999999995,-17.65799376820566,-25.589344151904612,-91.90161724400888,-0.5270732045173645,0.2960267961025238,0.33081018924713135,,,,,
6.8970410000000015,-19.48200157753888,-26.179158876727534,-89.95746911550074,-0.45191046595573425,-0.028883904218673706,-0.17455387115478516,,,,,
6.906431999999995,-21.198697930168308,-27.07260500970526,-87.62429103069626,-0.32823413610458374,-0.2470281422138214,-0.6474248766899109,,,,,
6.915624999999977,-22.73342835265187,-28.255826951445652,-84.79771157386905,-0.21720388531684875,-0.3916063904762268,-1.0595887899398804,,,,,
6.925017999999966,-24.065718543691542,-29.64461642383936,-81.64568758451784,-0.14105716347694397,-0.6198855638504028,-1.3513543605804443,,,,,
6.934406999999965,-25.19839765976863,-31.049245658465587,-78.48364713357059,-0.12732070684432983,-0.9767610430717468,-1.5128147602081299,,,,,
6.943778000000009,-26.113771427298943,-32.23842891924445,-75.60147757135984,-0.1674376130104065,-1.2783639430999756,-1.6215518712997437,,,,,
6.953160999999966,-26.653160517607922,-33.07824575460979,-73.23959589287124,-0.2559055685997009,-1.483642816543579,-1.7241606712341309,,,,,
6.962546999999972,-26.64111505005794,-33.63407489258154,-71.46054937707679,-0.4074804484844208,-1.6562600135803223,-1.7607080936431885,,,,,
6.971934999999974,-26.031467478531425,-34.17152162591438,-70.28121748633191,-0.5070096254348755,-1.7626314163208008,-1.6977169513702393,,,,,
6.981325999999967,-24.884364145999253,-34.884634573996344,-69.5337747489825,-0.5946111679077148,-1.7163835763931274,-1.5532574653625488,,,,,
6.990702999999996,-23.243996326413367,-35.818880414539,-69.04891771871311,-0.8414180278778076,-1.5156059265136719,-1.3250490427017212,,,,,
7.000073999999984,-21.06662174998964,-36.965450964016064,-68.7969019176558,-1.138126254081726,-1.236823558807373,-1.0325461626052856,,,,,
7.009466999999972,-18.325665641342457,-38.36203464774304,-68.75726283731872,-1.1876771450042725,-0.910513162612915,-0.8458493947982788,,,,,
7.018854999999974,-15.07063209822153,-40.179945624256916,-68.90616066053896,-0.985806941986084,-0.502848207950592,-0.7492190003395081,,,,,
7.028399999999976,-11.44182735491605,-42.65095456545335,-69.04773468511101,-0.5262424945831299,0,-0.7052696347236633,,,,,
7.0378109999999765,-7.663240283561929,-45.90832210088542,-68.9818241164035,0.1389528512954712,0.6669179201126099,-0.6905788779258728,,,,,
7.047178999999971,-3.9762882449443837,-49.79519697316312,-68.51032682078949,0.921818733215332,1.3418667316436768,-0.5295422077178955,,,,,
7.056561999999985,-0.701489007936348,-53.846310644970515,-67.5350559641959,1.6191518306732178,1.9318947792053223,-0.29858577251434326,,,,,
7.065931999999975,1.9880024828503362,-57.46734563360658,-66.37532390416881,2.323800563812256,2.4559922218322754,-0.14097195863723755,,,,,
7.075332000000003,4.155273356397592,-60.15914600435715,-65.5363159852478,2.9023990631103516,2.6857640743255615,0,,,,,
7.084709999999973,5.623616275922922,-61.68912083761559,-65.09791819706037,3.112926959991455,2.5277254581451416,0.047483891248703,,,,,
7.094092999999987,6.054868892901256,-62.171373463850884,-64.77274432656776,3.0816385746002197,2.1745736598968506,0.037420064210891724,,,,,
7.103471000000013,5.2949892240679945,-61.96094621178857,-64.11343257370845,2.8142268657684326,1.8107752799987793,0.02918529510498047,,,,,
7.112864000000002,3.3496975377384195,-61.34813619646656,-62.77348771065323,2.2947046756744385,1.3303312063217163,0,,,,,
7.122242999999969,0.5364573723469487,-60.4317721985454,-60.83320057218103,1.6236772537231445,0.8110718131065369,-0.07231181859970093,,,,,
7.13162699999998,-2.637336360513031,-59.213636427900425,-58.63150483394651,0.9843481183052063,0.3846719264984131,-0.12432903051376343,,,,,
7.141009999999994,-5.764773833512702,-57.79454961902387,-56.54363658442989,0.46463537216186523,0.07158902287483215,-0.11230507493019104,,,,,
7.1504150000000095,-8.639592062090665,-56.33229170240178,-54.72326194026997,0.07542282342910767,-0.12436608970165253,-0.11109539866447449,,,,,
7.159791999999982,-11.209927349254189,-54.9428829504924,-53.16409692513181,-0.19661444425582886,-0.3277791440486908,-0.09740778803825378,,,,,
7.16918800000002,-13.49444140490001,-53.64916892321835,-51.73165588781837,-0.45915746688842773,-0.5153619647026062,-0.13180917501449585,,,,,
7.178387999999984,-15.437559549981227,-52.394673846706965,-50.52257716372559,-0.781487762928009,-0.7337788343429565,-0.15560317039489746,,,,,
7.187750999999992,-16.93515674106352,-51.1202400728401,-49.854976063054245,-1.0507597923278809,-1.0103211402893066,-0.18104422092437744,,,,,
7.197129000000018,-17.94913041949146,-49.82891073402941,-49.738295127756096,-1.3018887042999268,-1.2664265632629395,-0.20084017515182495,,,,,
7.206524000000002,-18.42419564103189,-48.59956863904443,-50.16877825518604,-1.5523691177368164,-1.4540951251983643,-0.21531492471694946,,,,,
7.215905000000021,-18.318830812926898,-47.5690152918422,-51.087745893436704,-1.721889853477478,-1.5713348388671875,-0.2586595118045807,,,,,
7.225301000000002,-17.623860849138527,-46.87306637319854,-52.40283411483037,-1.7526803016662598,-1.6493760347366333,-0.3023770749568939,,,,,
7.234680999999966,-16.35483500641914,-46.609039422908594,-54.071115947157246,-1.7099944353103638,-1.6360712051391602,-0.31807300448417664,,,,,
7.2440540000000055,-14.434223221111312,-46.78160671243118,-56.19406781636686,-1.6325161457061768,-1.4914342164993286,-0.3396313488483429,,,,,
7.253447999999992,-11.706278908426228,-47.29907060472584,-58.88576226833622,-1.4951987266540527,-1.263206958770752,-0.29441580176353455,,,,,
7.262832000000003,-8.103627618009597,-48.00511430351466,-62.19965388819884,-1.1775156259536743,-0.9282903671264648,-0.2024535834789276,,,,,
7.272391999999968,-3.8274451599197437,-48.72299243473581,-65.81235912750324,-0.7217519879341125,-0.5298519134521484,-0.09093910455703735,,,,,
7.281767000000002,0.770193479317544,-49.31412107527841,-69.33532667633693,-0.25467002391815186,0,0,,,,,
7.2911490000000185,5.428460187135481,-49.65785280309553,-72.575592608928,0.24724483489990234,0.6753948926925659,0.029713869094848633,,,,,
7.300534999999968,10.005326969623367,-49.57629318625745,-75.55675973436885,0.892815113067627,1.387209177017212,0.09756362438201904,,,,,
7.3099129999999946,14.263238263021535,-48.85048390377006,-78.27775024921885,1.4374020099639893,1.9006534814834595,0.14841514825820923,,,,,
7.319292000000019,17.855410316031872,-47.31525332612477,-80.83242481224973,1.7912898063659668,2.2221219539642334,0.1532929539680481,,,,,
7.3286789999999655,20.372879996281725,-44.98446526964532,-83.30201791537841,2.1271536350250244,2.715930223464966,0.326599657535553,,,,,
7.338060999999982,21.453046079145913,-42.15711471021972,-85.42787761596968,2.2736783027648926,3.24272084236145,0.472703754901886,,,,,
7.3474390000000085,20.961712147771348,-39.23045678824583,-86.78833669969826,2.1001224517822266,3.331162214279175,0.5617959499359131,,,,,
7.356829000000005,19.09504309693603,-36.39005637548775,-87.30742662675351,1.7820680141448975,3.0650625228881836,0.48515409231185913,,,,,
7.366226999999981,16.196209107743417,-33.5934294784445,-87.39762405659162,1.599522590637207,2.564631700515747,0.3310094475746155,,,,,
7.375520999999992,12.625840236823917,-30.883298727825093,-87.37136390488462,1.4584790468215942,1.9820582866668701,0.11511033773422241,,,,,
7.384992000000011,8.683400390440141,-28.31327978275572,-87.27296033220108,1.1968693733215332,1.5467842817306519,-0.1541396975517273,,,,,
7.394375999999966,4.618435873108239,-25.897241594284758,-87.13033885008385,0.9533146619796753,1.2236950397491455,-0.4035365879535675,,,,,
7.403579999999977,0.5568141557644796,-23.64308404078154,-87.12836859185953,0.7289307713508606,0.9317177534103394,-0.6488403081893921,,,,,
7.4129709999999704,-3.494174040528606,-21.533410810722394,-87.3724285648265,0.5101406574249268,0.5859285593032837,-0.8186761736869812,,,,,
7.4223479999999995,-7.579946550989731,-19.511017448580137,-87.86235595797673,0.4009438157081604,0.1340935081243515,-1.0326744318008423,,,,,
7.431759999999997,-11.657034270527367,-17.594883923628,-88.67595950737496,0.40824681520462036,-0.39153772592544556,-1.3376226425170898,,,,,
7.441115999999965,-15.54516060342513,-15.832904845010155,-89.79454700694768,0.45941442251205444,-1.039276361465454,-1.631298542022705,,,,,
7.450554000000011,-19.028156025390963,-14.186850811557372,-91.05927090538863,0.46788597106933594,-1.6217620372772217,-1.8473886251449585,,,,,
7.459878000000003,-21.855854963251506,-12.55201185406363,-92.3573659643384,0.3507087528705597,-1.9377925395965576,-1.9697825908660889,,,,,
7.46926000000002,-23.82488903981857,-10.872912662800077,-93.64461956064763,0.26667505502700806,-2.0435569286346436,-1.944148302078247,,,,,
7.478644999999972,-24.928403745784045,-9.116205721941848,-94.90914509002928,0.2595365047454834,-1.9857786893844604,-1.8006234169006348,,,,,
7.488030999999978,-25.325313023404636,-7.315467673359252,-96.12515277482564,0.2501371502876282,-1.8639609813690186,-1.621706485748291,,,,,
7.497413999999992,-25.214090817101262,-5.495033318198327,-97.42902104445632,0.2516976594924927,-1.6428842544555664,-1.4666469097137451,,,,,
7.506799999999998,-24.751115317236785,-3.604362650642325,-98.9488552067149,0.34949421882629395,-1.3967832326889038,-1.2520889043807983,,,,,
7.516187000000002,-24.072603462307693,-1.5293519120062424,-100.8049834180301,0.5325592160224915,-1.1931397914886475,-1.0703301429748535,,,,,
7.525560999999982,-23.292323634661912,0.8142462039821154,-102.94888375885877,0.7808586359024048,-1.090337872505188,-0.9447604417800903,,,,,
7.534954999999968,-22.469899226124774,3.478777404967201,-105.03567556327936,1.0000780820846558,-1.056646466255188,-0.9194514751434326,,,,,
7.544330000000002,-21.546662608063507,6.464158368701686,-106.83815414468464,1.063204288482666,-0.970736026763916,-0.9693472385406494,,,,,
7.553709999999967,-20.357676936330325,9.788286404332098,-108.16185002252962,1.0074139833450317,-0.8225324153900146,-1.0766370296478271,,,,,
7.563003999999978,-18.616132114752595,13.545166699683632,-108.94435528750712,0.616068959236145,-0.3633403778076172,-1.2211973667144775,,,,,
7.572492000000011,-16.10839566594846,17.702262259932017,-109.19348605955417,-0.18661704659461975,0.4255988299846649,-1.2139050960540771,,,,,
7.581869999999981,-12.965014268120562,21.9970441419444,-109.18355059329986,-1.3622376918792725,1.4621813297271729,-1.0033645629882812,,,,,
7.591244000000017,-9.699796953211647,25.955492096434618,-109.38432247961713,-2.3846802711486816,2.6502938270568848,-0.2982432246208191,,,,,
7.600639000000001,-7.125151723366618,29.094675439643662,-110.20864903973823,-2.1304078102111816,3.754720449447632,0.4622390866279602,,,,,
7.610011999999983,-5.93839986705685,30.906447359955365,-111.81811430012168,-1.1755802631378174,4.4436798095703125,1.3194133043289185,,,,,
7.6287849999999935,-8.069906678723985,31.196126755358023,-115.87966568715194,-0.06739300489425659,3.7054169178009033,1.7314152717590332,,,,,
7.638170000000002,-10.582474641068215,31.256114577535854,-117.12515072326002,-0.07015764713287354,2.835137367248535,1.2300190925598145,,,,,
7.647559999999999,-13.65101055978636,31.968641563317014,-118.02277156974024,0,2.0067882537841797,0.6430379152297974,,,,,
7.656938999999966,-17.080582659806836,33.09820765517495,-119.19499034165959,0.17348122596740723,1.1954586505889893,0.06004136800765991,,,,,
7.6665140000000065,-20.632331624584342,34.15610313400426,-120.9227120702986,0.289382666349411,0.4789794981479645,-0.26008903980255127,,,,,
7.675882000000001,-24.24481426032403,34.86382647405058,-123.1325305908031,0.3800809979438782,-0.07006210088729858,-0.3902015686035156,,,,,
7.685283999999967,-27.819544886661987,35.22825405095247,-125.47698532557132,0.5524281859397888,-0.5132874250411987,-0.5353083610534668,,,,,
7.694476000000009,-31.138978805241305,35.41994147252937,-127.5446402901068,0.8384417295455933,-0.9401116371154785,-0.7250874638557434,,,,,
7.703856999999971,-33.96290003497685,35.615170750182024,-129.0765780694361,1.1340150833129883,-1.3655972480773926,-0.8867895603179932,,,,,
7.713249000000019,-36.1716932712345,35.92394565849466,-130.1223145305369,1.3909276723861694,-1.7885712385177612,-0.9975143671035767,,,,,
7.722529000000009,-37.82151052762323,36.37570131317795,-130.9626409028086,1.6017661094665527,-2.149536371231079,-1.0439811944961548,,,,,
7.731626000000006,-39.07519568756943,37.03093618359222,-131.935971561409,1.7322027683258057,-2.319387674331665,-1.0079569816589355,,,,,
7.741394000000014,-40.158233437879474,37.96524257921846,-133.36336922987041,1.7890598773956299,-2.282932758331299,-0.9675689935684204,,,,,
7.750771999999984,-41.240904622476535,39.22648299376386,-135.38468131355717,1.7816197872161865,-2.1101343631744385,-0.9267895817756653,,,,,
7.7601530000000025,-42.40939973245311,40.87568386752194,-137.94889468354563,1.7309398651123047,-1.7716925144195557,-0.8676881790161133,,,,,
7.769547999999986,-43.66543575836461,42.9697321200785,-140.94777450087565,1.556099534034729,-1.2903876304626465,-0.8989815711975098,,,,,
7.77892300000002,-44.91211697127756,45.51711781622193,-144.19220430069703,1.1221508979797363,-0.6943053603172302,-1.0445070266723633,,,,,
7.788312000000019,-45.94737305781752,48.566235707924555,-147.3384344348956,0.5764719247817993,-0.11243519186973572,-1.0142675638198853,,,,,
7.797873999999979,-46.695162767439314,52.07932984518452,-150.16630747318646,0.13420069217681885,0.4806625247001648,-0.7387361526489258,,,,,
7.80707000000001,-47.53530609674344,55.709328150277805,-152.97487434957984,-0.22326409816741943,1.0834431648254395,-0.4121026396751404,,,,,
7.816468999999984,-49.19317605692896,58.92325614891342,-156.41240436280376,-0.5692257881164551,1.70148503780365,-0.27879148721694946,,,,,
7.82584700000001,-52.552131218042994,61.353496509119104,-161.37677083898961,-1.1864128112792969,2.4104480743408203,-0.1058325469493866,,,,,
7.835223999999982,-58.348975240033205,62.582053760473904,-168.70025561796118,-2.1606314182281494,3.023782730102539,0.12117509543895721,,,,,
7.844618999999966,-66.35478818757464,62.29861941162211,-178.1599733694712,-2.706308364868164,2.9895589351654053,0.4708738923072815,,,,,
7.8539989999999875,-74.94976140237823,60.668009381766836,172.2088423844593,-2.502002477645874,2.6866490840911865,0.45520952343940735,,,,,
7.863370999999972,-82.31937725753741,58.310396627431714,164.39409737930583,-2.1717758178710938,2.3747754096984863,0.27723270654678345,,,,,
7.872757999999976,-87.96858673351885,56.02706742243142,158.87685748894253,-1.7554001808166504,1.9663441181182861,0.3059195280075073,,,,,
7.882322999999985,-91.98404254810325,54.522230851952436,155.56165061966954,-1.356292963027954,1.3969651460647583,0.08620627224445343,,,,,
7.891717999999969,-94.67605692385659,53.83662411441913,153.96187351482902,-1.0595158338546753,0.9004596471786499,-0.04438134282827377,,,,,
7.901084999999966,-96.49331043810089,53.777161749980266,153.5191006233106,-0.7180406451225281,0.6954867839813232,0.12708410620689392,,,,,
7.910489999999982,-97.96039368340661,54.087815838064024,153.4918583321565,-0.23368048667907715,0.6006714701652527,0.1749158799648285,,,,,
7.9198579999999765,-99.43132057668278,54.58265588457286,153.40813579962017,0.3776947855949402,0.3413735628128052,0.3133351802825928,,,,,
7.929061999999988,-101.3524558112585,55.11185652233834,152.84611625165516,0.9351846575737,0,0.48907339572906494,,,,,
7.93846400000001,-104.06894479800967,55.44159685634251,151.51180534712432,1.3198347091674805,-0.31814873218536377,0.5417037606239319,,,,,
7.947813999999994,-107.50792731069726,55.3516260731951,149.36210826839334,1.5448870658874512,-0.7683060765266418,0.4965273439884186,,,,,
7.9572109999999725,-111.42474601529554,54.77073516036084,146.55406127668618,1.6625447273254395,-1.3644869327545166,0.41395774483680725,,,,,
7.966590999999994,-115.63378793286294,53.78101670733477,143.19978674403407,1.8569309711456299,-1.7528135776519775,0.3783499598503113,,,,,
7.975975000000005,-119.8766214695217,52.534449849144075,139.53217064923678,2.0773935317993164,-1.7324684858322144,0.3552202582359314,,,,,
7.985361000000012,-123.9650618027554,51.19248594889296,135.73353340421747,2.1917624473571777,-1.4446520805358887,0.4279669225215912,,,,,
7.994744999999966,-127.94961838738752,49.795063577019334,131.82565474412368,2.2211432456970215,-1.095012903213501,0.4279637336730957,,,,,
8.004121999999995,-131.88957310713985,48.212981350631026,127.82988235623915,2.038818120956421,-0.6980595588684082,0.26363706588745117,,,,,
8.013524000000018,-135.5858191155463,46.14123091247195,123.89247791116424,1.4710972309112549,-0.2597682774066925,0,,,,,
8.02309200000002,-138.6653005200155,43.26449725489834,120.3231433444395,0.8124831318855286,0.043705880641937256,-0.36992979049682617,,,,,
8.032464000000004,-140.9358999408554,39.581135431974744,117.2752969213922,0.26701468229293823,0.2334153652191162,-0.6369504928588867,,,,,
8.04184399999997,-142.49709499758455,35.39938609230184,114.75055039820815,-0.17323046922683716,0.4257476031780243,-0.7985483407974243,,,,,
8.051222999999993,-143.533166797672,31.017369561646742,112.7856819000792,-0.5609920620918274,0.7128746509552002,-1.1839799880981445,,,,,
8.060609999999997,-144.1792170690277,26.739405158374,111.4540807399193,-0.954535961151123,0.8864774107933044,-1.43648099899292,,,,,
8.069980999999984,-144.72278370182536,22.79869196411215,110.60545712061916,-1.3793139457702637,0.7464061975479126,-1.7218199968338013,,,,,
8.079386999999997,-145.40098533995365,19.379466781672406,110.11019616164089,-1.6885007619857788,0.3748674988746643,-2.0158305168151855,,,,,
8.088769000000013,-146.26907157035734,16.643128011013935,109.84799730344737,-1.8178496360778809,-0.06088346242904663,-2.3178486824035645,,,,,
8.09814399999999,-147.17635054570383,14.758222834926812,109.62171396914212,-1.835610270500183,-0.41766196489334106,-2.523595094680786,,,,,
8.107531999999992,-147.88328155465862,13.807677015556388,109.29337420687047,-1.8511991500854492,-0.6483239531517029,-2.5273871421813965,,,,,
8.116910000000018,-148.22863796957031,13.704918844398811,108.96217008982421,-1.7816931009292603,-0.7701864242553711,-2.4102234840393066,,,,,
8.126287999999988,-148.1129660305846,14.299262966644845,108.78557943181512,-1.6496282815933228,-0.8291376829147339,-2.205745220184326,,,,,
8.135686000000021,-147.49923917911894,15.423770025494717,108.8652921361029,-1.4569309949874878,-0.7913386225700378,-1.935652494430542,,,,,
8.145052000000021,-146.4770253236641,16.89221369283329,109.30414461064144,-1.162451148033142,-0.6656875610351562,-1.718436360359192,,,,,
8.154436999999973,-145.06055210817243,18.5510061383314,110.21052235302483,-0.8789188861846924,-0.48184090852737427,-1.5139987468719482,,,,,
8.163836000000003,-143.19817988444757,20.250399817834268,111.61393134146861,-0.6674565076828003,-0.304416298866272,-1.3069236278533936,,,,,
8.173220000000015,-140.93305389057096,21.854461940985694,113.51138319496131,-0.5217701196670532,-0.14315420389175415,-1.0798678398132324,,,,,
8.182668999999976,-138.37219944497184,23.251630405247816,115.9462447274714,-0.28672662377357483,0.11551058292388916,-0.9209538102149963,,,,,
8.191980999999998,-135.53457095006598,24.492766329705624,118.61719983252557,0.10274139046669006,0.40418878197669983,-0.6137399077415466,,,,,
8.20119699999998,-132.63095577686312,25.85389079982523,121.08919570901807,0.5666125416755676,0.709679126739502,-0.06322813034057617,,,,,
8.21064899999999,-129.95807093406242,27.50633443867526,123.13332566422014,1.1279611587524414,1.0068358182907104,0.7506721019744873,,,,,
8.220034999999996,-127.76132083317557,29.34218159156159,124.69079236149949,1.813474416732788,1.2993979454040527,1.7196458578109741,,,,,
8.229415000000017,-126.19740446135347,30.89485537746221,125.74291279448884,2.54109787940979,1.539661169052124,2.800124168395996,,,,,
8.238798999999972,-125.44236562320394,31.531377203281657,126.09655078362093,3.1249752044677734,1.6494368314743042,3.5847644805908203,,,,,
8.248178999999993,-125.69651243347944,30.94022157715655,125.45798666311352,3.370157241821289,1.4639465808868408,3.936953544616699,,,,,
8.257569999999987,-127.18221320291183,29.35930828546087,123.67313408313517,3.2125871181488037,1.2319293022155762,3.961512565612793,,,,,
8.266953,-129.89083882922372,27.149862706769397,121.05596302002792,2.8309221267700195,1.1560951471328735,3.4696216583251953,,,,,
8.276318000000003,-133.5129242985217,24.63807525841204,118.19619180138899,2.4881958961486816,1.199174404144287,2.7356982231140137,,,,,
8.285714999999982,-137.67602278708623,22.14630897779953,115.3218110061104,2.1171762943267822,1.3466265201568604,1.7244831323623657,,,,,
8.295098999999993,-141.85377726189944,19.739706601346914,112.60559233423757,1.4406235218048096,1.4034169912338257,0.7970718145370483,,,,,
8.304416000000003,-145.76935558460877,17.179357527464493,110.25822678466758,0.7387082576751709,1.2394227981567383,0.043737947940826416,,,,,
8.313965999999994,-149.385780166527,14.370834097715122,108.39863183278797,0.26258978247642517,1.0337859392166138,-0.7101037502288818,,,,,
8.323353999999995,-152.6932793250034,11.395805163075016,106.97559588816792,-0.16256079077720642,0.7222629189491272,-1.2829880714416504,,,,,
8.332728999999972,-155.75589302620563,8.41213682532554,105.9270864722335,-0.32414117455482483,0.4457399845123291,-1.7385752201080322,,,,,
8.342112999999983,-158.5488950571988,5.636662653201965,105.0937701961642,-0.2192254662513733,0.30269894003868103,-2.200631618499756,,,,,
8.351496999999995,-160.94671962068844,3.2660961391413728,104.38380620017584,-0.2604714035987854,0.15463276207447052,-2.5033090114593506,,,,,
8.360885999999994,-162.90695512037962,1.2632062343198096,103.6863007831765,-0.43496695160865784,0.028628230094909668,-2.6446244716644287,,,,,
8.370276999999987,-164.4181119276407,-0.5193374250786004,103.03524465740061,-0.6339479088783264,-0.09812459349632263,-2.7260730266571045,,,,,
8.37964999999997,-165.49471197161105,-2.1677468758161242,102.53033423451616,-0.7551847696304321,-0.1871989369392395,-2.7894368171691895,,,,,
8.389042000000018,-166.1534180501358,-3.656870115196284,102.20540333753782,-0.7635723352432251,-0.3504215478897095,-2.821089506149292,,,,,
8.398424999999975,-166.37028497728446,-4.8618409590786715,101.97794315634171,-0.8226082921028137,-0.5303828716278076,-2.8004822731018066,,,,,
8.407806999999991,-166.10159091148466,-5.706749753616612,101.7933159126362,-0.9561197757720947,-0.7272264957427979,-2.6657843589782715,,,,,
8.417191000000003,-165.27354222848123,-6.168292018736139,101.32477328788815,-1.001707911491394,-0.8994321823120117,-2.4119932651519775,,,,,
8.426585999999986,-163.91536421265224,-6.226324293741593,100.69377235518851,-0.9024308323860168,-1.0614500045776367,-2.0587029457092285,,,,,
8.435969,-162.17221200276418,-5.906004995546381,100.10202157816873,-0.6306675672531128,-1.0845564603805542,-1.5774967670440674,,,,,
8.44534299999998,-160.04805641196094,-5.333464388326961,99.7219864682924,-0.2683870196342468,-0.8238774538040161,-1.0141396522521973,,,,,
8.454740000000015,-157.57670051752376,-4.784969190322192,99.64377456815605,0,-0.3545626997947693,-0.40692442655563354,,,,,
8.464132000000006,-154.7961675781342,-4.6485289916449934,100.16047892227144,0.1971178650856018,0.07137584686279297,0.16957610845565796,,,,,
8.473313000000019,-151.74722955023037,-5.239160706393699,101.0639841200641,0.36374789476394653,0.38062191009521484,0.7407891154289246,,,,,
8.48269799999997,-148.66239595137563,-6.655743672721403,101.99798516688102,0.46262189745903015,0.6271123290061951,1.2804821729660034,,,,,
8.492146999999989,-145.81873108863152,-8.767803182798898,102.73736595228101,0.5317473411560059,0.75948166847229,1.720881462097168,,,,,
8.501539999999977,-143.27531543041107,-11.285732087018092,103.04028317577361,0.514584481716156,0.9133740663528442,2.064331531524658,,,,,
8.510924999999986,-141.0206872175113,-14.016045285944195,102.82070360785353,0.3080294132232666,1.1734704971313477,2.2750768661499023,,,,,
8.520219999999995,-138.9971719464379,-16.97200216522678,102.22660598073847,0,1.3278086185455322,2.310244560241699,,,,,
8.529690000000016,-137.22223755640928,-20.284513780751595,101.34223665665249,-0.3069058656692505,1.420040249824524,2.1439285278320312,,,,,
8.539068999999984,-135.7694726819799,-23.99366612683494,100.33552912679434,-0.49105462431907654,1.558624029159546,1.8267947435379028,,,,,
8.548459999999977,-134.67287852319146,-28.002534116398976,99.30569573471958,-0.6395728588104248,1.6260902881622314,1.3861727714538574,,,,,
8.55785800000001,-133.99724449282525,-32.128950932782026,98.30698077219498,-0.6784639954566956,1.592532753944397,0.7951529622077942,,,,,
8.567163999999991,-133.87185629312998,-36.13060982452332,97.65066165944249,-0.6323207020759583,1.398436188697815,0.14617466926574707,,,,,
8.576548000000003,-134.42914530468386,-39.706271580212544,97.48851832047119,-0.5207482576370239,0.9771339297294617,-0.5065023303031921,,,,,
8.586118999999997,-135.68130936866677,-42.52615593304426,97.60636696755421,-0.30284252762794495,0.4185137152671814,-1.1753572225570679,,,,,
8.595478000000014,-137.48423963031294,-44.378011487694174,98.27357213388936,0,-0.18626326322555542,-1.6467218399047852,,,,,
8.604873999999995,-139.5608088480408,-45.17912955617634,99.52598791902749,0.41065454483032227,-0.6646783351898193,-2.009160280227661,,,,,
8.614244999999983,-141.4073683937729,-44.976636394828326,100.79847145459432,0.7513341307640076,-1.0266345739364624,-2.19429349899292,,,,,
8.623628999999994,-142.64991592068156,-44.11264644244835,101.96172382161458,0.8862770199775696,-1.27094304561615,-2.2335422039031982,,,,,
8.63300700000002,-143.1638813545577,-43.12853708360617,102.9774874084397,0.890414834022522,-1.298744797706604,-2.247746467590332,,,,,
8.642382999999995,-142.7174760946555,-42.43666686106004,103.74046516193243,0.8604812026023865,-1.1882230043411255,-2.159003734588623,,,,,
8.651776999999981,-141.17803902103816,-42.14846897547163,104.09505671955827,0.7675780653953552,-1.0858187675476074,-1.9641175270080566,,,,,
8.661159999999995,-138.6985000990188,-42.12002068549067,104.00834566520737,0.6993821859359741,-0.9778398275375366,-1.7676007747650146,,,,,
8.670554999999979,-135.51139561295662,-42.03378376329731,103.44930240340783,0.5926511883735657,-0.865169882774353,-1.5765821933746338,,,,,
8.679929000000016,-131.88351729034227,-41.54038689895866,102.66356387250336,0.3763001561164856,-0.7047044634819031,-1.5401372909545898,,,,,
8.689310999999975,-128.10964234903284,-40.501883735521375,102.09593849349876,0.20575469732284546,-0.5846064686775208,-1.4966260194778442,,,,,
8.698700999999971,-124.44309429753505,-38.872073715233675,102.05913643329991,0.16591185331344604,-0.4410449266433716,-1.4352951049804688,,,,,
8.708083999999985,-120.9990657567321,-36.6533081625897,102.78195787146144,0.19774365425109863,-0.2331661581993103,-1.3941295146942139,,,,,
8.71745599999997,-117.7657134664259,-33.928789163414734,104.32458260414204,0.3168286681175232,0.08784961700439453,-1.3509947061538696,,,,,
8.726848000000018,-114.55839492326281,-30.71095910302532,106.41794347926422,0.4787188172340393,0.5933756828308105,-1.1896369457244873,,,,,
8.736042999999995,-111.28236646824934,-27.11322635161881,108.88657322032672,0.5158631801605225,1.052183747291565,-0.8537441492080688,,,,,
8.745440999999971,-108.00427443553583,-23.35654009051291,111.55227402014982,0.6054171323776245,1.3850191831588745,-0.5729344487190247,,,,,
8.754828999999972,-104.7972255051056,-19.54263636896965,114.3731818550191,0.6949318051338196,1.6482675075531006,-0.30588483810424805,,,,,
8.764216999999974,-101.72298087417525,-15.720547259160313,117.30001389189715,0.7116456031799316,1.7616276741027832,0.03794454038143158,,,,,
8.773661000000004,-98.84749742885218,-11.825198337638511,120.29695532559442,0.7786399126052856,1.8782294988632202,0.39062511920928955,,,,,
8.783052999999995,-96.14114914319369,-7.702816305645622,123.41043281925666,0.8048787117004395,2.2199313640594482,0.8136008381843567,,,,,
8.792438000000004,-93.52427537715764,-3.601399472720713,126.75956326241703,0.7833778858184814,2.6963305473327637,1.3145217895507812,,,,,
8.80182400000001,-90.9494905343244,0.1072219882921663,130.31667161844834,0.8592873215675354,3.0052971839904785,1.819718599319458,,,,,
8.811199999999985,-88.55812831375009,3.3343763237304014,133.8846904166582,1.028306245803833,3.0048909187316895,2.303847551345825,,,,,
8.820576000000017,-86.72775625995722,6.03986566303078,137.1802417824329,1.1195271015167236,2.7108309268951416,2.588916063308716,,,,,
8.829897000000017,-85.97746092826952,8.260011852784643,139.85955608489255,0.9310517311096191,2.2167038917541504,2.486222505569458,,,,,
8.839274999999986,-86.53477691143107,10.160902398427003,141.68813904096376,0.8286229372024536,1.6520522832870483,1.8988370895385742,,,,,
8.848657000000003,-88.16133353602766,11.914062825854165,142.7551052530861,0.6019658446311951,0.9186627268791199,1.1319856643676758,,,,,
8.858226000000002,-90.47442057213583,13.603870343601717,143.3435972914753,0.10466493666172028,0,0.2961997091770172,,,,,
8.86761100000001,-92.91413710312891,15.301513027103198,143.77025168493938,-0.5020206570625305,-0.6902832984924316,-1.024330973625183,,,,,
8.876989999999978,-94.50037988460615,16.984292334395455,144.6333252884304,-0.8498140573501587,-0.996853768825531,-1.551472544670105,,,,,
8.88637399999999,-94.88406394697054,18.742114043611675,146.3376360157864,-1.3322827816009521,-1.3254175186157227,-1.6683789491653442,,,,,
8.895753000000013,-94.20093577885082,20.68228771335855,149.05923570010944,-1.6329786777496338,-1.555269718170166,-1.8014945983886719,,,,,
8.905141000000015,-92.59539354012941,22.980728970937708,152.80827769305927,-1.6418591737747192,-1.5220133066177368,-1.7573353052139282,,,,,
8.91452499999997,-90.03114085561504,25.756455822303728,157.45120217792433,-1.4530425071716309,-1.2358121871948242,-1.6936147212982178,,,,,
8.923900000000003,-86.24368570231319,28.988038318173366,163.07289669292118,-1.2416789531707764,-0.8322277069091797,-1.5305901765823364,,,,,
8.933294999999987,-81.00532187178432,32.31136728682642,169.90066289355642,-0.9438824653625488,-0.4481869339942932,-1.3118865489959717,,,,,
8.942687999999976,-74.29769912205774,35.081000548474094,178.04854687100058,-0.4854530096054077,-0.113777756690979,-1.128679633140564,,,,,
8.952071999999987,-66.40855054817884,36.71202238923485,-172.57858993607516,0.0492740273475647,0.2005348801612854,-0.8759428858757019,,,,,
8.961268000000018,-58.06160053058142,36.721623745262214,-162.52019330610122,0.7435883283615112,0.43279239535331726,-0.5789775252342224,,,,,
8.970743999999968,-50.02007686046904,34.93181993675905,-152.56013829702852,1.5871461629867554,0.6235755681991577,-0.5206694602966309,,,,,
8.980106999999975,-42.629180191676404,31.694714573125683,-143.07663046266416,2.412970542907715,0.7550938129425049,-0.45986658334732056,,,,,
8.989407999999969,-35.95364468567107,27.722166572016405,-134.206260324505,3.079638719558716,0.8249759674072266,-0.2876284122467041,,,,,
8.998790999999983,-30.14025805827664,23.656557214767616,-126.12113232661359,3.4675962924957275,0.6702477931976318,-0.05940026044845581,,,,,
9.008185999999966,-25.438942151215187,19.87569768893302,-118.94773014711899,3.486600399017334,0.39151376485824585,0.045248985290527344,,,,,
9.017563999999993,-21.93149662200311,16.714501568285304,-113.21863791052819,3.10897159576416,0.15250958502292633,0,,,,,
9.026945000000012,-19.39169381493545,14.541340647923187,-109.14720079532928,2.5266194343566895,0,-0.11615288257598877,,,,,
9.036333000000013,-17.515963011760082,13.599837129468838,-106.57748157181071,2.0263404846191406,-0.19059047102928162,-0.21466064453125,,,,,
9.04571199999998,-16.073282619261903,13.84867987944559,-105.17845437135,1.5764755010604858,-0.26237258315086365,-0.36909371614456177,,,,,
9.055119999999988,-14.793751783946805,15.003705743874542,-104.38061851823227,1.033090353012085,-0.1930551826953888,-0.4580920338630676,,,,,
9.064569000000006,-13.420476546776856,16.688256245773843,-103.69929246543295,0.34742867946624756,-0.04388649761676788,-0.3800421953201294,,,,,
9.074058999999977,-11.759804012652163,18.495183196272524,-102.80246026732053,-0.3613429069519043,0.3003964424133301,-0.09152686595916748,,,,,
9.083432000000016,-9.813103468027034,19.964401213727562,-101.61964728888093,-1.0198439359664917,0.8560788035392761,0.4163329005241394,,,,,
9.092805999999996,-7.767287612833471,20.649727190513094,-100.23028654116132,-1.3512022495269775,1.3450016975402832,0.8713536858558655,,,,,
9.102199999999982,-5.658928719753592,20.307031509017353,-98.41242520924078,-1.6195935010910034,1.7424046993255615,1.3959465026855469,,,,,
9.111575000000016,-3.692822600104145,18.92153292822793,-96.1261418362817,-1.9693307876586914,2.116626262664795,1.9334909915924072,,,,,
9.12097399999999,-2.218100898086903,16.79016951756818,-93.83330302251933,-2.076227903366089,2.2228050231933594,2.2592670917510986,,,,,
9.13034799999997,-1.4665946585826624,14.34403044176571,-91.91048273094572,-1.9336193799972534,1.9760639667510986,2.2874269485473633,,,,,
9.139745000000005,-1.5085104950614419,11.956211176976899,-90.57840178678254,-1.6940864324569702,1.6037020683288574,2.0466561317443848,,,,,
9.149119999999982,-2.2772547867522324,9.807691934460115,-89.79823301229301,-1.4310321807861328,1.2074259519577026,1.6820688247680664,,,,,
9.158501999999999,-3.6360914701116283,7.870049691309504,-89.45281076951828,-1.1499308347702026,0.8531370759010315,1.208632469177246,,,,,
9.167885000000012,-5.380269342828285,5.985276221846306,-89.21348606372055,-0.8322003483772278,0.5902812480926514,0.6665925979614258,,,,,
9.177262999999982,-7.356117772607142,3.961438361163043,-88.87361475253,-0.5448197722434998,0.3336646556854248,0.12104368209838867,,,,,
9.186654999999973,-9.488734399372833,1.7011460982535958,-88.28599524033673,-0.3228940963745117,0.06888706982135773,-0.43810367584228516,,,,,
9.19586499999997,-11.660270935542163,-0.7666727849916914,-87.49741576253433,-0.04241640493273735,-0.2981122136116028,-0.971712052822113,,,,,
9.205238000000008,-13.684560845672543,-3.3470888949393673,-86.56288325470896,0.35739219188690186,-0.7993659377098083,-1.5379881858825684,,,,,
9.21462600000001,-15.331970592373253,-5.9594902009735184,-85.59355612937536,0.7599359750747681,-1.2466487884521484,-1.9986388683319092,,,,,
9.224014000000011,-16.408092478995453,-8.514312984443682,-84.65561633911075,1.047545313835144,-1.518187403678894,-2.309735059738159,,,,,
9.233389999999986,-16.80688625551936,-10.939019027921283,-83.79474203906962,1.3171820640563965,-1.6783583164215088,-2.5063719749450684,,,,,
9.242772000000002,-16.50964922306894,-13.222790673607237,-82.97374198570192,1.5597846508026123,-1.6878043413162231,-2.6716105937957764,,,,,
9.252159000000006,-15.571868192284073,-15.367890764970683,-82.11016522446458,1.687719464302063,-1.5399225950241089,-2.742992639541626,,,,,
9.261554999999987,-14.025750801884756,-17.34174329231216,-81.15565612746414,1.831809163093567,-1.3602733612060547,-2.7419357299804688,,,,,
9.27092799999997,-11.899181990412186,-19.04599177551199,-80.01288747546339,1.8870010375976562,-1.1075714826583862,-2.655395030975342,,,,,
9.280309999999986,-9.258764399892293,-20.343783064132186,-78.66414301602914,1.6614480018615723,-0.6211601495742798,-2.3850178718566895,,,,,
9.289687000000015,-6.090387224922523,-21.16157577236119,-77.29560251290405,1.2103652954101562,-0.07869043201208115,-1.8415722846984863,,,,,
9.299084999999991,-2.5137869394710766,-21.478391716487227,-76.03503398797636,0.5415341854095459,0.48952949047088623,-1.1487740278244019,,,,,
9.308629999999994,1.2955086566333922,-21.37216767635106,-74.9823071253276,-0.16653600335121155,1.1686900854110718,-0.2495046854019165,,,,,
9.318025999999975,5.108961166054372,-21.09468933938348,-74.29366504377755,-0.5677939653396606,1.671034336090088,0.7674938440322876,,,,,
9.327392999999972,8.56607956979988,-21.019738852960973,-74.136654470674,-0.7644572257995605,1.9679032564163208,1.5313501358032227,,,,,
9.336779999999976,11.519722315596328,-21.4519087025581,-74.48102514070109,-0.9022717475891113,2.1860554218292236,2.1119132041931152,,,,,
9.34617099999997,13.926261262595924,-22.47745071484398,-75.19264969303622,-0.9967071413993835,2.3486413955688477,2.686267852783203,,,,,
9.355552999999986,15.69130504137453,-23.967112892405062,-76.19272816095327,-0.9122632741928101,2.3795270919799805,2.9547321796417236,,,,,
9.374317000000019,17.09259276317052,-27.710489414441426,-78.20165556861858,-0.3449503779411316,2.0080196857452393,2.6442105770111084,,,,,
9.383699999999976,16.705523406399372,-29.664169289064944,-78.98606461271237,-0.14428117871284485,1.8068987131118774,2.2623801231384277,,,,,
9.393100000000004,15.701318266293583,-31.4624068095561,-79.6052275134392,-0.06321242451667786,1.546705722808838,1.7386448383331299,,,,,
9.402469999999994,14.239674099591019,-33.00851023726068,-80.20764190826137,-0.11800065636634827,1.2552868127822876,1.1869945526123047,,,,,
9.411862999999983,12.469923721896986,-34.27041932136427,-80.92389203717778,-0.1439003050327301,0.8544137477874756,0.7146844267845154,,,,,
9.421247999999991,10.419927712072486,-35.31687769750919,-81.76726008806261,-0.10082662105560303,0.3582364618778229,0.21325552463531494,,,,,
9.430627000000015,8.142812597825847,-36.27675734738765,-82.74605988593451,-0.10197076201438904,0,-0.26734644174575806,,,,,
9.440019000000007,5.840754533134832,-37.23788984945553,-83.88282841118533,-0.1080901026725769,-0.38040462136268616,-0.6926947832107544,,,,,
9.449234999999987,3.6845318784426966,-38.20487732739539,-85.21616251139206,-0.13754352927207947,-0.8800976276397705,-1.149698257446289,,,,,
9.458606999999972,1.8730016924976312,-39.16950487017546,-86.61920072975585,-0.19314080476760864,-1.411015272140503,-1.5891010761260986,,,,,
